SpectraSuite Data File
++++++++++++++++++++++++++++++++++++
Date: Tue Oct 06 12:10:26 EDT 2015
User: lab3
Dark Spectrum Present: No
Reference Spectrum Present: No
Number of Sampled Component Spectra: 1
Spectrometers: USB2E7196
Integration Time (usec): 66000 (USB2E7196)
Spectra Averaged: 400 (USB2E7196)
Boxcar Smoothing: 10 (USB2E7196)
Correct for Electrical Dark: No (USB2E7196)
Strobe/Lamp Enabled: No (USB2E7196)
Correct for Detector Non-linearity: No (USB2E7196)
Correct for Stray Light: No (USB2E7196)
Number of Pixels in Processed Spectrum: 2048
>>>>>Begin Processed Spectral Data<<<<<
339.09	0.00
339.48	216.80
339.86	218.13
340.24	219.69
340.63	220.74
341.01	225.12
341.39	223.61
341.78	225.44
342.16	226.33
342.54	227.04
342.93	215.19
343.31	226.06
343.69	226.61
344.07	227.07
344.46	227.52
344.84	227.93
345.22	228.13
345.60	228.42
345.99	228.61
346.37	228.78
346.75	228.89
347.13	228.98
347.52	229.07
347.90	229.19
348.28	229.23
348.66	229.31
349.05	229.30
349.43	229.37
349.81	229.45
350.19	229.52
350.57	229.60
350.96	229.69
351.34	229.80
351.72	229.89
352.10	230.01
352.48	230.07
352.87	230.14
353.25	230.21
353.63	230.27
354.01	230.34
354.39	230.41
354.77	230.50
355.15	230.63
355.54	230.65
355.92	230.68
356.30	230.76
356.68	230.96
357.06	231.03
357.44	231.07
357.82	231.12
358.20	231.33
358.58	231.38
358.97	231.44
359.35	231.53
359.73	231.63
360.11	231.68
360.49	231.75
360.87	231.79
361.25	231.85
361.63	231.94
362.01	232.00
362.39	232.01
362.77	232.06
363.15	232.09
363.53	232.14
363.91	232.17
364.29	232.21
364.67	232.05
365.05	232.08
365.43	232.12
365.81	232.17
366.19	232.12
366.57	232.20
366.95	232.21
367.33	232.18
367.71	232.15
368.09	232.19
368.47	232.18
368.85	232.17
369.23	232.20
369.61	232.12
369.99	232.16
370.37	232.18
370.75	232.28
371.13	232.23
371.51	232.17
371.89	232.14
372.27	232.11
372.65	232.10
373.03	232.07
373.41	232.01
373.78	231.94
374.16	231.81
374.54	231.70
374.92	231.63
375.30	231.57
375.68	231.50
376.06	231.45
376.44	231.38
376.82	231.33
377.19	231.27
377.57	231.21
377.95	231.09
378.33	231.03
378.71	230.83
379.09	230.78
379.47	230.77
379.84	230.70
380.22	230.62
380.60	230.56
380.98	230.49
381.36	230.44
381.73	230.38
382.11	230.38
382.49	230.36
382.87	230.29
383.25	230.27
383.62	230.44
384.00	230.39
384.38	230.36
384.76	230.36
385.13	230.38
385.51	230.35
385.89	230.31
386.27	230.28
386.64	230.28
387.02	230.23
387.40	230.19
387.78	230.18
388.15	230.18
388.53	230.12
388.91	230.10
389.29	230.07
389.66	230.08
390.04	230.04
390.42	230.06
390.79	230.09
391.17	230.07
391.55	229.87
391.92	229.85
392.30	229.87
392.68	229.82
393.05	229.81
393.43	229.84
393.81	229.85
394.18	229.83
394.56	229.83
394.94	229.87
395.31	229.87
395.69	229.93
396.06	229.96
396.44	230.01
396.82	230.04
397.19	230.17
397.57	230.19
397.95	230.27
398.32	230.26
398.70	230.34
399.07	230.44
399.45	230.50
399.82	230.57
400.20	230.65
400.58	230.75
400.95	230.75
401.33	230.87
401.70	231.10
402.08	231.24
402.45	231.36
402.83	231.54
403.20	231.70
403.58	231.85
403.95	232.08
404.33	232.29
404.71	232.51
405.08	232.81
405.46	233.05
405.83	233.31
406.21	233.59
406.58	233.89
406.96	234.21
407.33	234.56
407.70	234.98
408.08	235.52
408.45	236.01
408.83	236.54
409.20	237.04
409.58	237.50
409.95	238.11
410.33	238.78
410.70	239.39
411.08	240.15
411.45	240.91
411.82	241.73
412.20	242.65
412.57	243.72
412.95	244.59
413.32	245.72
413.69	246.91
414.07	248.12
414.44	249.48
414.82	250.86
415.19	252.47
415.56	254.09
415.94	255.79
416.31	257.71
416.68	259.64
417.06	261.86
417.43	263.96
417.81	266.34
418.18	268.77
418.55	271.45
418.93	274.24
419.30	277.16
419.67	280.23
420.04	283.39
420.42	286.73
420.79	290.56
421.16	294.42
421.54	298.32
421.91	302.42
422.28	306.67
422.66	311.26
423.03	315.62
423.40	320.21
423.77	325.12
424.15	330.13
424.52	335.32
424.89	340.97
425.26	346.53
425.64	351.74
426.01	357.58
426.38	363.58
426.75	369.68
427.13	375.95
427.50	382.50
427.87	389.29
428.24	396.13
428.61	402.68
428.99	409.73
429.36	417.54
429.73	425.01
430.10	432.41
430.47	440.00
430.85	447.90
431.22	456.26
431.59	464.85
431.96	473.23
432.33	482.57
432.70	491.44
433.08	502.00
433.45	511.91
433.82	521.64
434.19	532.49
434.56	543.25
434.93	553.64
435.30	564.01
435.68	575.74
436.05	587.21
436.42	598.66
436.79	609.10
437.16	620.38
437.53	632.55
437.90	644.74
438.27	656.59
438.64	669.31
439.01	680.99
439.38	691.77
439.75	702.15
440.13	713.94
440.50	725.14
440.87	734.00
441.24	743.81
441.61	754.55
441.98	762.46
442.35	771.78
442.72	781.32
443.09	790.48
443.46	796.52
443.83	800.98
444.20	804.65
444.57	810.08
444.94	813.37
445.31	816.60
445.68	819.35
446.05	821.44
446.42	821.11
446.79	820.54
447.16	819.99
447.53	819.65
447.90	816.18
448.27	812.73
448.64	807.47
449.01	803.87
449.37	796.46
449.74	789.79
450.11	781.12
450.48	771.55
450.85	761.82
451.22	753.33
451.59	745.16
451.96	737.87
452.33	727.27
452.70	717.70
453.07	706.15
453.43	694.69
453.80	683.52
454.17	672.85
454.54	662.87
454.91	651.62
455.28	640.92
455.65	630.82
456.02	620.29
456.38	611.74
456.75	600.76
457.12	591.89
457.49	582.89
457.86	574.47
458.23	567.09
458.59	558.93
458.96	550.63
459.33	543.28
459.70	535.78
460.07	529.98
460.43	523.20
460.80	516.89
461.17	511.32
461.54	505.39
461.91	499.85
462.27	494.22
462.64	489.62
463.01	484.35
463.38	479.09
463.74	474.31
464.11	470.09
464.48	466.30
464.85	462.16
465.21	459.01
465.58	455.48
465.95	451.44
466.32	448.24
466.68	445.07
467.05	441.88
467.42	438.78
467.78	435.47
468.15	432.45
468.52	430.23
468.88	427.32
469.25	424.66
469.62	422.54
469.98	420.18
470.35	418.09
470.72	416.22
471.08	414.26
471.45	412.65
471.82	410.81
472.18	408.92
472.55	407.70
472.92	406.16
473.28	404.97
473.65	403.72
474.02	402.55
474.38	401.57
474.75	400.94
475.11	400.08
475.48	399.69
475.85	399.28
476.21	399.07
476.58	398.94
476.94	399.13
477.31	399.15
477.67	399.30
478.04	399.59
478.41	400.00
478.77	400.59
479.14	400.93
479.50	401.72
479.87	402.71
480.23	403.68
480.60	404.63
480.96	405.55
481.33	406.94
481.69	408.31
482.06	409.69
482.42	411.02
482.79	412.62
483.15	414.49
483.52	416.61
483.88	418.60
484.25	420.76
484.61	423.00
484.98	425.42
485.34	428.17
485.71	431.00
486.07	434.00
486.44	436.98
486.80	440.35
487.17	443.76
487.53	447.49
487.90	451.40
488.26	455.66
488.62	460.17
488.99	464.70
489.35	469.49
489.72	474.62
490.08	479.96
490.44	485.43
490.81	491.05
491.17	496.84
491.54	502.99
491.90	509.28
492.26	516.02
492.63	523.07
492.99	530.36
493.36	537.96
493.72	545.94
494.08	554.08
494.45	562.61
494.81	571.54
495.17	580.68
495.54	590.32
495.90	600.40
496.26	610.72
496.63	621.23
496.99	632.10
497.35	643.45
497.72	655.16
498.08	667.25
498.44	679.69
498.80	692.89
499.17	706.45
499.53	720.42
499.89	734.69
500.26	749.08
500.62	763.80
500.98	779.19
501.34	794.81
501.71	811.10
502.07	827.64
502.43	844.66
502.79	861.77
503.16	879.39
503.52	897.22
503.88	915.49
504.24	934.24
504.60	953.21
504.97	972.61
505.33	992.49
505.69	1013.38
506.05	1034.25
506.41	1055.02
506.78	1076.07
507.14	1097.97
507.50	1120.31
507.86	1143.09
508.22	1165.94
508.59	1188.62
508.95	1212.09
509.31	1236.03
509.67	1260.67
510.03	1285.16
510.39	1310.02
510.75	1334.89
511.12	1359.78
511.48	1384.72
511.84	1409.68
512.20	1435.15
512.56	1460.97
512.92	1486.65
513.28	1511.92
513.64	1537.57
514.00	1563.28
514.37	1589.22
514.73	1614.88
515.09	1640.05
515.45	1665.43
515.81	1690.84
516.17	1716.35
516.53	1741.17
516.89	1765.89
517.25	1790.66
517.61	1815.26
517.97	1840.08
518.33	1864.40
518.69	1888.68
519.05	1913.10
519.41	1937.44
519.77	1961.69
520.13	1985.65
520.49	2009.35
520.85	2033.14
521.21	2056.72
521.57	2080.44
521.93	2103.09
522.29	2126.16
522.65	2148.71
523.01	2171.12
523.37	2192.71
523.73	2214.70
524.09	2236.78
524.45	2258.92
524.81	2280.04
525.17	2301.05
525.53	2321.31
525.89	2341.91
526.25	2362.01
526.61	2381.01
526.97	2400.15
527.33	2418.72
527.68	2436.45
528.04	2453.61
528.40	2469.73
528.76	2486.32
529.12	2501.76
529.48	2517.53
529.84	2532.06
530.20	2547.65
530.56	2562.18
530.91	2576.61
531.27	2589.94
531.63	2602.43
531.99	2614.56
532.35	2625.30
532.71	2635.99
533.07	2646.94
533.42	2656.29
533.78	2666.39
534.14	2676.65
534.50	2685.54
534.86	2694.66
535.21	2701.90
535.57	2709.12
535.93	2716.78
536.29	2723.35
536.65	2730.09
537.00	2734.85
537.36	2739.91
537.72	2743.33
538.08	2746.40
538.44	2748.53
538.79	2751.20
539.15	2753.06
539.51	2754.34
539.87	2756.31
540.22	2756.18
540.58	2756.53
540.94	2756.58
541.29	2755.18
541.65	2752.30
542.01	2749.53
542.37	2745.65
542.72	2743.45
543.08	2740.00
543.44	2736.27
543.79	2730.74
544.15	2725.15
544.51	2720.34
544.87	2713.58
545.22	2706.29
545.58	2699.30
545.94	2693.07
546.29	2685.11
546.65	2676.49
547.01	2667.91
547.36	2658.82
547.72	2649.85
548.07	2639.79
548.43	2629.46
548.79	2618.04
549.14	2607.73
549.50	2597.20
549.86	2586.16
550.21	2573.25
550.57	2561.64
550.92	2548.40
551.28	2535.80
551.64	2523.53
551.99	2511.16
552.35	2498.96
552.70	2486.47
553.06	2474.27
553.41	2461.02
553.77	2447.35
554.13	2434.01
554.48	2420.00
554.84	2405.57
555.19	2391.92
555.55	2377.45
555.90	2363.17
556.26	2349.86
556.61	2335.75
556.97	2320.71
557.32	2306.07
557.68	2291.72
558.03	2276.77
558.39	2262.59
558.74	2248.71
559.10	2232.70
559.45	2217.33
559.81	2202.65
560.16	2187.73
560.52	2172.43
560.87	2157.94
561.23	2143.00
561.58	2128.44
561.94	2113.05
562.29	2097.91
562.64	2082.73
563.00	2067.71
563.35	2053.31
563.71	2038.68
564.06	2023.71
564.42	2009.28
564.77	1994.79
565.12	1980.71
565.48	1966.60
565.83	1952.15
566.19	1937.77
566.54	1924.00
566.89	1908.98
567.25	1893.52
567.60	1879.23
567.96	1864.39
568.31	1849.06
568.66	1834.61
569.02	1820.09
569.37	1805.84
569.72	1791.80
570.08	1777.63
570.43	1763.37
570.78	1748.44
571.14	1733.47
571.49	1718.89
571.84	1705.05
572.20	1690.09
572.55	1675.29
572.90	1659.92
573.26	1644.64
573.61	1629.21
573.96	1614.28
574.31	1600.07
574.67	1586.26
575.02	1571.67
575.37	1556.85
575.72	1541.90
576.08	1527.27
576.43	1512.74
576.78	1498.23
577.13	1483.84
577.49	1469.45
577.84	1455.03
578.19	1440.76
578.54	1426.61
578.90	1412.36
579.25	1397.65
579.60	1384.04
579.95	1370.39
580.30	1357.01
580.66	1343.65
581.01	1330.36
581.36	1317.00
581.71	1303.56
582.06	1290.25
582.42	1277.05
582.77	1264.22
583.12	1251.69
583.47	1239.06
583.82	1226.52
584.17	1214.05
584.53	1201.54
584.88	1189.43
585.23	1177.17
585.58	1165.16
585.93	1153.16
586.28	1141.73
586.63	1130.20
586.98	1118.54
587.34	1107.26
587.69	1095.74
588.04	1084.59
588.39	1073.58
588.74	1062.49
589.09	1051.76
589.44	1040.55
589.79	1029.87
590.14	1019.37
590.49	1008.93
590.84	998.78
591.19	988.69
591.54	978.60
591.89	968.32
592.25	958.11
592.60	947.83
592.95	937.86
593.30	927.92
593.65	917.92
594.00	908.20
594.35	899.11
594.70	889.54
595.05	880.68
595.40	871.62
595.75	862.44
596.10	853.73
596.45	844.85
596.80	836.34
597.15	827.89
597.50	819.40
597.85	811.28
598.19	803.05
598.54	794.85
598.89	786.81
599.24	779.22
599.59	771.66
599.94	764.61
600.29	757.28
600.64	750.09
600.99	742.92
601.34	735.95
601.69	728.38
602.04	721.44
602.39	714.54
602.74	707.87
603.08	701.33
603.43	694.83
603.78	688.41
604.13	682.11
604.48	675.81
604.83	669.75
605.18	663.59
605.53	657.60
605.87	651.52
606.22	645.70
606.57	639.84
606.92	633.85
607.27	628.02
607.62	622.54
607.96	617.12
608.31	611.97
608.66	606.66
609.01	601.65
609.36	596.79
609.70	591.81
610.05	586.82
610.40	581.99
610.75	577.04
611.10	572.45
611.44	567.84
611.79	563.29
612.14	558.71
612.49	554.17
612.83	549.80
613.18	545.67
613.53	541.55
613.88	537.46
614.22	533.61
614.57	529.62
614.92	525.66
615.27	521.83
615.61	517.97
615.96	514.27
616.31	510.60
616.65	506.87
617.00	503.30
617.35	499.81
617.70	496.37
618.04	493.09
618.39	489.76
618.74	486.56
619.08	483.27
619.43	480.10
619.78	477.04
620.12	473.99
620.47	471.11
620.82	468.19
621.16	465.35
621.51	462.63
621.85	459.97
622.20	457.36
622.55	454.77
622.89	452.22
623.24	449.77
623.59	447.36
623.93	445.03
624.28	442.76
624.62	440.72
624.97	438.64
625.32	436.40
625.66	434.14
626.01	431.92
626.35	429.95
626.70	427.87
627.04	425.97
627.39	424.01
627.73	422.04
628.08	420.22
628.43	418.43
628.77	416.62
629.12	414.91
629.46	413.16
629.81	411.55
630.15	409.88
630.50	408.20
630.84	406.57
631.19	405.03
631.53	403.52
631.88	401.84
632.22	400.24
632.57	398.97
632.91	397.68
633.26	396.43
633.60	395.11
633.95	393.89
634.29	392.54
634.64	391.29
634.98	389.89
635.32	388.64
635.67	387.47
636.01	386.29
636.36	385.14
636.70	384.13
637.05	382.96
637.39	381.90
637.73	380.87
638.08	379.90
638.42	378.88
638.77	377.80
639.11	376.68
639.45	375.64
639.80	374.54
640.14	373.51
640.49	372.43
640.83	371.41
641.17	370.40
641.52	369.40
641.86	368.45
642.20	367.67
642.55	366.67
642.89	365.69
643.23	364.74
643.58	363.90
643.92	362.93
644.26	362.04
644.61	361.20
644.95	360.35
645.29	359.45
645.64	358.53
645.98	357.67
646.32	356.89
646.66	356.08
647.01	355.21
647.35	354.44
647.69	353.65
648.04	352.92
648.38	352.13
648.72	351.38
649.06	350.66
649.41	349.90
649.75	349.20
650.09	348.53
650.43	347.86
650.78	347.12
651.12	346.41
651.46	345.73
651.80	345.05
652.14	344.35
652.49	343.71
652.83	343.05
653.17	342.39
653.51	341.77
653.85	341.17
654.20	340.59
654.54	339.91
654.88	339.30
655.22	338.67
655.56	337.99
655.90	337.33
656.25	336.67
656.59	336.06
656.93	335.46
657.27	334.93
657.61	334.29
657.95	333.73
658.29	333.15
658.64	332.62
658.98	332.03
659.32	331.46
659.66	330.89
660.00	330.35
660.34	329.82
660.68	329.24
661.02	328.63
661.36	328.04
661.70	327.46
662.05	326.93
662.39	326.43
662.73	326.02
663.07	325.62
663.41	325.13
663.75	324.57
664.09	324.05
664.43	323.43
664.77	322.93
665.11	322.33
665.45	321.82
665.79	321.27
666.13	320.72
666.47	320.16
666.81	319.60
667.15	319.00
667.49	318.51
667.83	318.07
668.17	317.62
668.51	317.17
668.85	316.76
669.19	316.37
669.53	315.85
669.87	315.32
670.21	314.82
670.55	314.37
670.89	314.02
671.23	313.58
671.57	313.18
671.91	312.80
672.25	312.42
672.58	312.03
672.92	311.56
673.26	311.16
673.60	310.75
673.94	310.36
674.28	310.00
674.62	309.61
674.96	309.16
675.30	308.77
675.64	308.32
675.97	307.89
676.31	307.39
676.65	306.95
676.99	306.61
677.33	306.14
677.67	305.68
678.01	305.15
678.34	304.69
678.68	304.28
679.02	303.78
679.36	303.33
679.70	302.86
680.04	302.46
680.37	302.00
680.71	301.58
681.05	301.18
681.39	300.74
681.73	300.25
682.06	299.77
682.40	299.31
682.74	298.90
683.08	298.53
683.42	298.08
683.75	297.64
684.09	297.10
684.43	296.63
684.77	296.18
685.10	295.78
685.44	295.38
685.78	294.93
686.12	294.53
686.45	294.06
686.79	293.59
687.13	293.14
687.46	292.68
687.80	292.24
688.14	291.75
688.48	291.32
688.81	290.88
689.15	290.52
689.49	290.05
689.82	289.58
690.16	289.05
690.50	288.62
690.83	288.17
691.17	287.70
691.51	287.28
691.84	286.87
692.18	286.41
692.52	285.95
692.85	285.51
693.19	285.12
693.52	284.73
693.86	284.33
694.20	283.91
694.53	283.47
694.87	283.02
695.21	282.57
695.54	282.12
695.88	281.67
696.21	281.15
696.55	280.73
696.88	280.32
697.22	279.89
697.56	279.47
697.89	279.04
698.23	278.64
698.56	278.18
698.90	277.78
699.23	277.35
699.57	276.93
699.90	276.49
700.24	276.04
700.58	275.64
700.91	275.26
701.25	275.02
701.58	274.72
701.92	274.40
702.25	274.04
702.59	273.64
702.92	273.27
703.26	272.91
703.59	272.52
703.93	272.28
704.26	271.93
704.60	271.54
704.93	271.13
705.26	270.75
705.60	270.42
705.93	269.99
706.27	269.68
706.60	269.34
706.94	269.04
707.27	268.62
707.61	268.23
707.94	267.84
708.27	267.32
708.61	266.88
708.94	266.48
709.28	266.12
709.61	265.75
709.94	265.41
710.28	265.07
710.61	264.77
710.95	264.28
711.28	264.06
711.61	263.74
711.95	263.47
712.28	263.12
712.61	262.77
712.95	262.54
713.28	262.28
713.61	261.93
713.95	261.58
714.28	261.30
714.61	260.99
714.95	260.69
715.28	260.39
715.61	260.08
715.95	259.81
716.28	259.51
716.61	259.24
716.95	258.93
717.28	258.63
717.61	258.32
717.94	258.02
718.28	257.61
718.61	257.32
718.94	257.01
719.27	256.75
719.61	256.51
719.94	256.23
720.27	255.90
720.60	255.64
720.94	255.40
721.27	255.16
721.60	254.93
721.93	254.68
722.27	254.48
722.60	254.25
722.93	253.99
723.26	253.76
723.59	253.51
723.93	253.32
724.26	253.11
724.59	252.87
724.92	252.67
725.25	252.50
725.59	252.30
725.92	252.12
726.25	251.89
726.58	251.69
726.91	251.44
727.24	251.23
727.57	251.02
727.91	250.78
728.24	250.59
728.57	250.36
728.90	250.18
729.23	249.92
729.56	249.82
729.89	249.66
730.22	249.46
730.55	249.26
730.89	249.06
731.22	248.84
731.55	248.66
731.88	248.47
732.21	248.27
732.54	248.07
732.87	247.88
733.20	247.71
733.53	247.53
733.86	247.35
734.19	247.16
734.52	247.02
734.85	246.98
735.18	246.77
735.51	246.67
735.84	246.50
736.17	246.39
736.50	246.11
736.83	246.11
737.16	245.95
737.49	245.80
737.82	245.62
738.15	245.50
738.48	245.33
738.81	245.16
739.14	244.96
739.47	244.79
739.80	244.63
740.13	244.50
740.46	244.31
740.79	244.14
741.12	243.97
741.45	243.78
741.78	243.52
742.11	243.41
742.44	243.22
742.77	243.08
743.10	242.89
743.43	242.76
743.75	242.45
744.08	242.58
744.41	242.42
744.74	242.28
745.07	242.11
745.40	242.02
745.73	241.94
746.06	241.81
746.39	241.72
746.71	241.59
747.04	241.43
747.37	241.32
747.70	241.23
748.03	241.11
748.36	241.03
748.68	240.92
749.01	240.76
749.34	240.65
749.67	240.53
750.00	240.45
750.33	240.45
750.65	240.34
750.98	239.96
751.31	239.86
751.64	239.77
751.97	239.75
752.29	239.61
752.62	239.43
752.95	239.34
753.28	239.18
753.60	239.06
753.93	238.99
754.26	238.89
754.59	238.74
754.91	238.63
755.24	238.50
755.57	238.47
755.90	238.35
756.22	238.22
756.55	238.09
756.88	237.94
757.20	237.72
757.53	237.58
757.86	237.49
758.19	237.40
758.51	237.30
758.84	237.12
759.17	237.02
759.49	236.96
759.82	236.94
760.15	236.89
760.47	236.80
760.80	236.67
761.13	236.62
761.45	236.53
761.78	236.44
762.11	236.38
762.43	236.20
762.76	236.13
763.08	236.08
763.41	236.00
763.74	235.93
764.06	235.86
764.39	235.78
764.71	235.68
765.04	235.60
765.37	235.51
765.69	235.43
766.02	235.35
766.34	235.24
766.67	235.11
767.00	235.08
767.32	235.12
767.65	235.16
767.97	235.07
768.30	235.02
768.62	234.96
768.95	234.86
769.27	234.79
769.60	234.74
769.92	234.63
770.25	234.55
770.57	234.46
770.90	234.41
771.22	234.35
771.55	234.31
771.87	234.27
772.20	234.21
772.52	234.31
772.85	234.46
773.17	234.43
773.50	234.35
773.82	234.28
774.15	234.12
774.47	233.98
774.80	233.92
775.12	233.88
775.45	233.84
775.77	233.82
776.09	233.79
776.42	233.75
776.74	233.77
777.07	233.72
777.39	233.70
777.72	233.64
778.04	233.62
778.36	233.58
778.69	233.51
779.01	233.47
779.33	233.28
779.66	233.04
779.98	233.01
780.31	232.99
780.63	233.02
780.95	233.00
781.28	232.94
781.60	232.90
781.92	232.85
782.25	232.82
782.57	232.78
782.89	232.72
783.22	232.68
783.54	232.61
783.86	232.61
784.19	232.56
784.51	232.58
784.83	232.51
785.16	232.46
785.48	232.43
785.80	232.41
786.12	232.39
786.45	232.37
786.77	232.35
787.09	232.30
787.42	232.20
787.74	232.18
788.06	232.17
788.38	232.14
788.71	232.09
789.03	232.07
789.35	232.07
789.67	232.03
789.99	232.02
790.32	231.98
790.64	231.98
790.96	232.13
791.28	232.05
791.61	232.02
791.93	232.03
792.25	231.99
792.57	232.08
792.89	232.03
793.21	232.02
793.54	231.96
793.86	231.93
794.18	231.90
794.50	231.85
794.82	231.83
795.14	231.81
795.47	231.83
795.79	231.80
796.11	231.73
796.43	231.72
796.75	231.68
797.07	231.66
797.39	231.62
797.71	231.45
798.04	231.44
798.36	231.43
798.68	231.41
799.00	231.42
799.32	231.32
799.64	231.31
799.96	231.26
800.28	231.27
800.60	231.23
800.92	231.24
801.24	231.22
801.56	231.22
801.89	231.18
802.21	231.17
802.53	231.13
802.85	231.15
803.17	231.22
803.49	231.17
803.81	231.13
804.13	231.10
804.45	231.06
804.77	231.04
805.09	231.03
805.41	231.00
805.73	230.93
806.05	230.87
806.37	230.87
806.69	230.88
807.01	230.87
807.33	230.86
807.65	230.78
807.97	230.85
808.28	230.80
808.60	230.79
808.92	230.75
809.24	230.85
809.56	230.80
809.88	230.72
810.20	230.72
810.52	230.75
810.84	230.72
811.16	230.67
811.48	230.65
811.80	230.70
812.12	230.68
812.43	230.71
812.75	230.72
813.07	230.67
813.39	230.64
813.71	230.59
814.03	230.57
814.35	230.58
814.67	230.48
814.98	230.46
815.30	230.44
815.62	230.40
815.94	230.26
816.26	230.24
816.58	230.19
816.89	230.20
817.21	230.14
817.53	230.15
817.85	230.16
818.17	230.14
818.48	230.04
818.80	230.07
819.12	230.01
819.44	229.97
819.76	229.95
820.07	229.96
820.39	229.94
820.71	229.94
821.03	229.93
821.34	229.92
821.66	229.93
821.98	229.93
822.30	229.92
822.61	230.03
822.93	230.02
823.25	230.01
823.57	229.98
823.88	230.01
824.20	229.99
824.52	230.02
824.83	230.00
825.15	230.00
825.47	229.98
825.79	229.99
826.10	229.98
826.42	229.98
826.74	229.96
827.05	229.96
827.37	229.96
827.69	229.94
828.00	229.95
828.32	229.92
828.64	229.90
828.95	229.99
829.27	229.94
829.58	229.93
829.90	229.95
830.22	229.96
830.53	229.91
830.85	229.89
831.17	229.82
831.48	229.83
831.80	229.82
832.11	229.81
832.43	229.79
832.75	229.78
833.06	229.88
833.38	229.84
833.69	229.83
834.01	229.83
834.32	229.82
834.64	229.79
834.96	229.80
835.27	229.78
835.59	229.70
835.90	229.67
836.22	229.66
836.53	229.62
836.85	229.59
837.16	229.78
837.48	229.78
837.79	229.85
838.11	229.85
838.42	229.84
838.74	229.84
839.05	229.82
839.37	229.81
839.68	229.69
840.00	229.68
840.31	229.71
840.63	229.67
840.94	229.66
841.26	229.63
841.57	229.63
841.88	229.66
842.20	229.64
842.51	229.61
842.83	229.60
843.14	229.76
843.46	229.75
843.77	229.63
844.08	229.62
844.40	229.56
844.71	229.56
845.03	229.53
845.34	229.52
845.65	229.51
845.97	229.50
846.28	229.52
846.60	229.53
846.91	229.49
847.22	229.48
847.54	229.51
847.85	229.52
848.16	229.51
848.48	229.48
848.79	229.54
849.10	229.57
849.42	229.58
849.73	229.41
850.04	229.41
850.36	229.34
850.67	229.36
850.98	229.37
851.30	229.37
851.61	229.38
851.92	229.38
852.23	229.42
852.55	229.43
852.86	229.43
853.17	229.44
853.49	229.48
853.80	229.51
854.11	229.53
854.42	229.55
854.74	229.53
855.05	229.53
855.36	229.45
855.67	229.45
855.99	229.45
856.30	229.66
856.61	229.65
856.92	229.68
857.23	229.69
857.55	229.66
857.86	229.65
858.17	229.67
858.48	229.65
858.79	229.62
859.11	229.63
859.42	229.62
859.73	229.60
860.04	229.59
860.35	229.54
860.66	229.48
860.98	229.47
861.29	229.48
861.60	229.47
861.91	229.49
862.22	229.47
862.53	229.44
862.84	229.23
863.16	229.27
863.47	229.25
863.78	229.22
864.09	229.23
864.40	229.23
864.71	229.22
865.02	229.22
865.33	229.19
865.64	229.17
865.95	229.16
866.27	229.27
866.58	229.24
866.89	229.27
867.20	229.25
867.51	229.23
867.82	229.22
868.13	229.25
868.44	229.23
868.75	229.26
869.06	229.27
869.37	229.28
869.68	229.22
869.99	229.24
870.30	229.25
870.61	229.28
870.92	229.25
871.23	229.26
871.54	229.29
871.85	229.35
872.16	229.38
872.47	229.38
872.78	229.26
873.09	229.28
873.40	229.26
873.71	229.29
874.02	229.29
874.33	229.27
874.64	229.24
874.95	229.28
875.26	229.23
875.56	229.24
875.87	229.23
876.18	229.24
876.49	229.41
876.80	229.39
877.11	229.35
877.42	229.37
877.73	229.35
878.04	229.32
878.35	229.29
878.66	229.28
878.96	229.28
879.27	229.27
879.58	229.27
879.89	229.27
880.20	229.31
880.51	229.30
880.82	229.32
881.12	229.33
881.43	229.28
881.74	229.26
882.05	229.24
882.36	229.24
882.67	229.25
882.97	229.05
883.28	229.04
883.59	229.04
883.90	229.06
884.21	229.09
884.51	229.09
884.82	229.05
885.13	229.06
885.44	229.06
885.74	229.07
886.05	229.05
886.36	229.04
886.67	228.97
886.98	229.07
887.28	229.08
887.59	229.07
887.90	229.08
888.20	229.08
888.51	229.13
888.82	229.10
889.13	229.11
889.43	229.25
889.74	229.24
890.05	229.23
890.35	229.21
890.66	229.17
890.97	229.15
891.28	229.14
891.58	229.14
891.89	229.14
892.20	229.12
892.50	229.11
892.81	229.11
893.12	229.11
893.42	229.02
893.73	229.02
894.04	229.03
894.34	229.05
894.65	229.03
894.95	229.01
895.26	229.02
895.57	229.10
895.87	228.92
896.18	228.96
896.48	228.96
896.79	228.96
897.10	229.00
897.40	229.01
897.71	229.03
898.01	229.00
898.32	229.03
898.63	229.01
898.93	229.02
899.24	229.03
899.54	229.04
899.85	229.03
900.15	229.03
900.46	229.01
900.76	229.01
901.07	229.01
901.38	228.98
901.68	229.00
901.99	228.91
902.29	228.95
902.60	228.91
902.90	228.91
903.21	228.91
903.51	228.88
903.82	228.92
904.12	228.91
904.43	228.92
904.73	228.90
905.03	228.91
905.34	229.07
905.64	229.06
905.95	229.04
906.25	229.03
906.56	229.04
906.86	229.04
907.17	229.03
907.47	229.04
907.77	229.04
908.08	228.99
908.38	229.01
908.69	229.02
908.99	229.05
909.30	229.06
909.60	229.06
909.90	229.05
910.21	228.99
910.51	228.97
910.81	228.98
911.12	229.00
911.42	228.99
911.73	228.81
912.03	228.82
912.33	228.86
912.64	228.85
912.94	228.82
913.24	228.79
913.55	228.78
913.85	228.77
914.15	228.80
914.46	228.83
914.76	228.81
915.06	228.78
915.37	228.75
915.67	228.74
915.97	228.73
916.27	228.74
916.58	228.76
916.88	228.74
917.18	228.72
917.49	228.85
917.79	228.86
918.09	228.88
918.39	228.93
918.70	228.93
919.00	228.92
919.30	229.01
919.60	229.02
919.91	229.00
920.21	229.00
920.51	228.96
920.81	228.95
921.12	228.98
921.42	228.98
921.72	228.98
922.02	228.99
922.32	229.01
922.63	228.99
922.93	229.09
923.23	229.11
923.53	229.08
923.83	228.95
924.13	228.95
924.44	228.96
924.74	228.97
925.04	229.00
925.34	229.03
925.64	228.96
925.94	228.94
926.24	229.04
926.55	229.03
926.85	229.06
927.15	229.06
927.45	229.05
927.75	229.04
928.05	229.04
928.35	229.03
928.65	229.05
928.95	229.07
929.26	228.98
929.56	229.00
929.86	229.03
930.16	229.01
930.46	229.00
930.76	229.01
931.06	228.93
931.36	228.88
931.66	228.90
931.96	228.93
932.26	228.94
932.56	228.86
932.86	228.89
933.16	228.88
933.46	228.87
933.76	228.85
934.06	228.87
934.36	228.95
934.66	228.93
934.96	228.91
935.26	228.92
935.56	228.93
935.86	228.89
936.16	228.87
936.46	228.85
936.76	228.86
937.06	228.83
937.36	228.86
937.66	228.87
937.96	228.85
938.26	228.81
938.56	228.80
938.86	228.82
939.16	228.86
939.46	228.86
939.76	228.88
940.06	228.88
940.35	228.86
940.65	228.77
940.95	228.78
941.25	228.75
941.55	228.72
941.85	228.71
942.15	228.76
942.45	228.82
942.75	228.83
943.04	228.83
943.34	228.87
943.64	228.84
943.94	228.82
944.24	228.80
944.54	228.81
944.84	228.81
945.13	228.78
945.43	228.73
945.73	228.71
946.03	228.70
946.33	228.69
946.62	228.69
946.92	228.70
947.22	228.70
947.52	228.70
947.82	228.73
948.11	228.71
948.41	228.66
948.71	228.61
949.01	228.60
949.31	228.58
949.60	228.56
949.90	228.61
950.20	228.61
950.50	228.61
950.79	228.60
951.09	228.63
951.39	228.62
951.69	228.60
951.98	228.66
952.28	228.65
952.58	228.64
952.87	228.65
953.17	228.68
953.47	228.66
953.76	228.66
954.06	228.62
954.36	228.61
954.66	228.62
954.95	228.66
955.25	228.69
955.55	228.71
955.84	228.67
956.14	228.67
956.44	228.66
956.73	228.63
957.03	228.64
957.32	228.63
957.62	228.62
957.92	228.67
958.21	228.64
958.51	228.85
958.81	228.87
959.10	228.89
959.40	228.91
959.69	228.93
959.99	228.95
960.29	228.97
960.58	228.95
960.88	229.02
961.17	228.99
961.47	229.00
961.76	228.97
962.06	229.01
962.36	228.98
962.65	228.99
962.95	229.00
963.24	228.98
963.54	228.99
963.83	229.00
964.13	228.98
964.42	228.96
964.72	228.80
965.01	228.81
965.31	228.79
965.60	228.73
965.90	228.84
966.19	228.80
966.49	228.83
966.78	228.83
967.08	228.81
967.37	228.81
967.67	228.78
967.96	228.81
968.26	228.79
968.55	228.81
968.85	228.81
969.14	228.83
969.43	228.83
969.73	228.81
970.02	228.81
970.32	228.80
970.61	228.78
970.91	228.74
971.20	228.71
971.49	228.70
971.79	228.74
972.08	228.61
972.38	228.63
972.67	228.61
972.96	228.65
973.26	228.61
973.55	228.66
973.85	228.66
974.14	228.66
974.43	228.69
974.73	228.65
975.02	228.64
975.31	228.65
975.61	228.65
975.90	228.64
976.19	228.63
976.49	228.65
976.78	228.66
977.07	228.66
977.37	228.67
977.66	228.70
977.95	228.67
978.24	228.69
978.54	228.73
978.83	228.71
979.12	228.69
979.42	228.70
979.71	228.67
980.00	228.66
980.29	228.65
980.59	228.61
980.88	228.66
981.17	228.66
981.46	228.66
981.76	228.66
982.05	228.69
982.34	228.73
982.63	228.72
982.93	228.73
983.22	228.76
983.51	228.77
983.80	228.78
984.09	228.79
984.39	228.77
984.68	228.74
984.97	228.74
985.26	228.74
985.55	228.75
985.85	228.71
986.14	228.75
986.43	228.76
986.72	228.75
987.01	228.70
987.30	228.68
987.59	228.66
987.89	228.67
988.18	228.61
988.47	228.57
988.76	228.55
989.05	228.53
989.34	228.51
989.63	228.54
989.92	228.53
990.22	228.51
990.51	228.50
990.80	228.48
991.09	228.50
991.38	228.52
991.67	228.50
991.96	228.50
992.25	228.50
992.54	228.47
992.83	228.47
993.12	228.45
993.41	228.49
993.70	228.56
993.99	228.58
994.28	228.61
994.58	228.65
994.87	228.65
995.16	228.65
995.45	228.62
995.74	228.55
996.03	228.58
996.32	228.60
996.61	228.65
996.90	228.66
997.19	228.64
997.48	228.64
997.77	228.62
998.06	228.63
998.34	228.62
998.63	228.62
998.92	228.65
999.21	228.71
999.50	228.72
999.79	228.65
1000.08	228.65
1000.37	228.66
1000.66	228.64
1000.95	228.67
1001.24	228.68
1001.53	228.74
1001.82	228.75
1002.11	228.71
1002.40	228.72
1002.68	228.75
1002.97	228.87
1003.26	228.85
1003.55	228.84
1003.84	228.85
1004.13	228.90
1004.42	228.90
1004.71	228.91
1004.99	228.90
1005.28	228.93
1005.57	228.91
1005.86	228.91
1006.15	228.88
1006.44	228.86
1006.72	228.87
1007.01	228.84
1007.30	228.83
1007.59	228.79
1007.88	228.79
1008.17	228.79
1008.45	228.76
1008.74	228.68
1009.03	228.59
1009.32	228.60
1009.60	228.60
1009.89	228.59
1010.18	228.53
1010.47	228.50
1010.76	228.49
1011.04	228.47
1011.33	228.45
1011.62	228.46
1011.91	228.45
1012.19	228.46
1012.48	228.47
1012.77	228.48
1013.05	228.53
1013.34	228.53
1013.63	228.53
1013.92	228.55
1014.20	228.55
1014.49	228.57
1014.78	228.58
1015.06	228.53
1015.35	228.53
1015.64	228.56
1015.92	228.59
1016.21	228.59
1016.50	228.60
1016.78	228.61
1017.07	228.62
1017.36	228.60
1017.64	228.57
1017.93	228.58
1018.22	228.56
1018.50	228.55
1018.79	228.54
1019.08	228.48
1019.36	228.49
1019.65	228.46
1019.93	228.50
1020.22	228.51
1020.51	228.59
1020.79	228.56
1021.08	228.18
1021.36	228.13
1021.65	228.50
1021.94	228.40
1022.22	228.45
1022.51	228.10
1022.79	229.46
1023.08	228.48
1023.36	230.52
1023.65	228.07
>>>>>End Processed Spectral Data<<<<<
