SpectraSuite Data File
++++++++++++++++++++++++++++++++++++
Date: Tue Oct 06 16:50:02 EDT 2015
User: lab3
Dark Spectrum Present: No
Reference Spectrum Present: No
Number of Sampled Component Spectra: 1
Spectrometers: USB2E7196
Integration Time (usec): 66000 (USB2E7196)
Spectra Averaged: 1000 (USB2E7196)
Boxcar Smoothing: 10 (USB2E7196)
Correct for Electrical Dark: No (USB2E7196)
Strobe/Lamp Enabled: No (USB2E7196)
Correct for Detector Non-linearity: No (USB2E7196)
Correct for Stray Light: No (USB2E7196)
Number of Pixels in Processed Spectrum: 2048
>>>>>Begin Processed Spectral Data<<<<<
339.09	0.00
339.48	215.24
339.86	216.81
340.24	218.14
340.63	219.48
341.01	223.26
341.39	222.10
341.78	223.72
342.16	225.06
342.54	225.14
342.93	213.70
343.31	224.51
343.69	225.05
344.07	225.50
344.46	225.94
344.84	226.35
345.22	226.56
345.60	226.83
345.99	227.03
346.37	227.17
346.75	227.29
347.13	227.38
347.52	227.47
347.90	227.60
348.28	227.65
348.66	227.74
349.05	227.72
349.43	227.78
349.81	227.85
350.19	227.92
350.57	228.00
350.96	228.10
351.34	228.20
351.72	228.31
352.10	228.43
352.48	228.50
352.87	228.55
353.25	228.63
353.63	228.67
354.01	228.73
354.39	228.82
354.77	228.91
355.15	229.03
355.54	229.08
355.92	229.08
356.30	229.16
356.68	229.34
357.06	229.43
357.44	229.47
357.82	229.54
358.20	229.75
358.58	229.80
358.97	229.87
359.35	229.97
359.73	230.06
360.11	230.11
360.49	230.17
360.87	230.21
361.25	230.28
361.63	230.40
362.01	230.46
362.39	230.48
362.77	230.53
363.15	230.55
363.53	230.57
363.91	230.61
364.29	230.64
364.67	230.49
365.05	230.52
365.43	230.56
365.81	230.61
366.19	230.57
366.57	230.65
366.95	230.64
367.33	230.59
367.71	230.60
368.09	230.63
368.47	230.64
368.85	230.63
369.23	230.65
369.61	230.57
369.99	230.62
370.37	230.62
370.75	230.73
371.13	230.71
371.51	230.66
371.89	230.65
372.27	230.64
372.65	230.62
373.03	230.58
373.41	230.54
373.78	230.48
374.16	230.35
374.54	230.24
374.92	230.19
375.30	230.17
375.68	230.08
376.06	230.04
376.44	229.97
376.82	229.94
377.19	229.89
377.57	229.84
377.95	229.73
378.33	229.68
378.71	229.47
379.09	229.41
379.47	229.40
379.84	229.32
380.22	229.26
380.60	229.17
380.98	229.13
381.36	229.07
381.73	228.99
382.11	228.99
382.49	228.95
382.87	228.88
383.25	228.84
383.62	229.01
384.00	228.93
384.38	228.90
384.76	228.90
385.13	228.92
385.51	228.88
385.89	228.82
386.27	228.79
386.64	228.79
387.02	228.75
387.40	228.70
387.78	228.69
388.15	228.66
388.53	228.64
388.91	228.61
389.29	228.59
389.66	228.60
390.04	228.55
390.42	228.57
390.79	228.57
391.17	228.55
391.55	228.33
391.92	228.34
392.30	228.35
392.68	228.30
393.05	228.28
393.43	228.29
393.81	228.31
394.18	228.28
394.56	228.30
394.94	228.35
395.31	228.35
395.69	228.43
396.06	228.47
396.44	228.52
396.82	228.54
397.19	228.67
397.57	228.69
397.95	228.76
398.32	228.76
398.70	228.83
399.07	228.93
399.45	229.00
399.82	229.06
400.20	229.11
400.58	229.20
400.95	229.21
401.33	229.34
401.70	229.57
402.08	229.71
402.45	229.84
402.83	230.01
403.20	230.18
403.58	230.31
403.95	230.52
404.33	230.73
404.71	230.95
405.08	231.25
405.46	231.50
405.83	231.77
406.21	232.06
406.58	232.37
406.96	232.70
407.33	233.08
407.70	233.50
408.08	234.10
408.45	234.60
408.83	235.15
409.20	235.65
409.58	236.11
409.95	236.73
410.33	237.41
410.70	238.05
411.08	238.81
411.45	239.63
411.82	240.45
412.20	241.39
412.57	242.48
412.95	243.36
413.32	244.52
413.69	245.71
414.07	246.97
414.44	248.35
414.82	249.74
415.19	251.38
415.56	253.06
415.94	254.79
416.31	256.75
416.68	258.71
417.06	260.97
417.43	263.10
417.81	265.54
418.18	268.05
418.55	270.76
418.93	273.60
419.30	276.56
419.67	279.71
420.04	282.93
420.42	286.33
420.79	290.23
421.16	294.15
421.54	298.14
421.91	302.33
422.28	306.66
422.66	311.35
423.03	315.79
423.40	320.45
423.77	325.43
424.15	330.54
424.52	335.84
424.89	341.58
425.26	347.27
425.64	352.56
426.01	358.49
426.38	364.54
426.75	370.77
427.13	377.15
427.50	383.83
427.87	390.75
428.24	397.74
428.61	404.43
428.99	411.66
429.36	419.58
429.73	427.14
430.10	434.67
430.47	442.37
430.85	450.35
431.22	458.87
431.59	467.60
431.96	476.12
432.33	485.58
432.70	494.58
433.08	505.23
433.45	515.29
433.82	525.21
434.19	536.33
434.56	547.29
434.93	557.93
435.30	568.45
435.68	580.39
436.05	592.08
436.42	603.79
436.79	614.48
437.16	626.10
437.53	638.52
437.90	650.93
438.27	663.16
438.64	676.31
439.01	688.28
439.38	699.26
439.75	709.87
440.13	721.97
440.50	733.46
440.87	742.68
441.24	752.79
441.61	763.88
441.98	772.07
442.35	781.80
442.72	791.71
443.09	801.14
443.46	807.31
443.83	811.99
444.20	815.86
444.57	821.47
444.94	824.81
445.31	828.26
445.68	831.23
446.05	833.46
446.42	833.18
446.79	832.63
447.16	832.22
447.53	831.88
447.90	828.37
448.27	824.97
448.64	819.65
449.01	815.97
449.37	808.32
449.74	801.37
450.11	792.40
450.48	782.51
450.85	772.62
451.22	764.10
451.59	755.71
451.96	748.14
452.33	737.14
452.70	727.36
453.07	715.49
453.43	703.68
453.80	692.13
454.17	681.09
454.54	670.88
454.91	659.34
455.28	648.45
455.65	638.16
456.02	627.31
456.38	618.55
456.75	607.37
457.12	598.35
457.49	589.25
457.86	580.61
458.23	573.02
458.59	564.63
458.96	556.04
459.33	548.52
459.70	540.85
460.07	534.99
460.43	528.08
460.80	521.64
461.17	516.01
461.54	509.95
461.91	504.25
462.27	498.46
462.64	493.74
463.01	488.34
463.38	482.89
463.74	477.97
464.11	473.60
464.48	469.64
464.85	465.40
465.21	462.14
465.58	458.51
465.95	454.41
466.32	451.14
466.68	447.92
467.05	444.68
467.42	441.53
467.78	438.17
468.15	435.08
468.52	432.82
468.88	429.82
469.25	427.07
469.62	424.89
469.98	422.54
470.35	420.42
470.72	418.51
471.08	416.59
471.45	414.98
471.82	413.18
472.18	411.29
472.55	410.04
472.92	408.51
473.28	407.32
473.65	406.03
474.02	404.83
474.38	403.80
474.75	403.19
475.11	402.34
475.48	401.96
475.85	401.52
476.21	401.25
476.58	401.07
476.94	401.25
477.31	401.32
477.67	401.40
478.04	401.74
478.41	402.17
478.77	402.78
479.14	403.16
479.50	403.94
479.87	404.95
480.23	405.95
480.60	406.90
480.96	407.84
481.33	409.29
481.69	410.71
482.06	412.13
482.42	413.44
482.79	415.06
483.15	416.93
483.52	419.07
483.88	421.11
484.25	423.26
484.61	425.51
484.98	427.92
485.34	430.64
485.71	433.48
486.07	436.53
486.44	439.54
486.80	442.94
487.17	446.43
487.53	450.19
487.90	454.15
488.26	458.45
488.62	462.99
488.99	467.52
489.35	472.27
489.72	477.36
490.08	482.71
490.44	488.19
490.81	493.92
491.17	499.81
491.54	506.10
491.90	512.53
492.26	519.40
492.63	526.62
492.99	534.15
493.36	541.84
493.72	549.93
494.08	558.21
494.45	566.87
494.81	575.91
495.17	585.23
495.54	595.03
495.90	605.27
496.26	615.67
496.63	626.39
496.99	637.49
497.35	649.08
497.72	660.96
498.08	673.19
498.44	685.72
498.80	698.94
499.17	712.47
499.53	726.46
499.89	740.87
500.26	755.46
500.62	770.39
500.98	786.15
501.34	801.94
501.71	818.51
502.07	835.33
502.43	852.64
502.79	870.14
503.16	888.15
503.52	906.38
503.88	924.98
504.24	944.02
504.60	963.32
504.97	983.25
505.33	1003.60
505.69	1024.98
506.05	1046.54
506.41	1067.98
506.78	1089.56
507.14	1111.76
507.50	1134.35
507.86	1157.33
508.22	1180.50
508.59	1203.52
508.95	1227.58
509.31	1252.09
509.67	1277.24
510.03	1302.28
510.39	1327.28
510.75	1352.27
511.12	1377.59
511.48	1403.12
511.84	1428.56
512.20	1454.29
512.56	1481.02
512.92	1507.61
513.28	1533.58
513.64	1559.89
514.00	1586.50
514.37	1613.38
514.73	1640.22
515.09	1666.42
515.45	1692.91
515.81	1719.53
516.17	1745.83
516.53	1771.45
516.89	1796.97
517.25	1822.68
517.61	1848.17
517.97	1874.27
518.33	1899.74
518.69	1925.06
519.05	1950.75
519.41	1976.61
519.77	2002.45
520.13	2026.76
520.49	2051.14
520.85	2075.78
521.21	2099.90
521.57	2124.27
521.93	2147.61
522.29	2171.56
522.65	2195.27
523.01	2218.69
523.37	2241.42
523.73	2264.83
524.09	2288.01
524.45	2310.70
524.81	2332.76
525.17	2354.61
525.53	2375.66
525.89	2397.15
526.25	2418.22
526.61	2437.68
526.97	2457.11
527.33	2476.41
527.68	2495.37
528.04	2513.95
528.40	2531.26
528.76	2548.79
529.12	2565.82
529.48	2583.36
529.84	2598.22
530.20	2613.55
530.56	2627.97
530.91	2642.58
531.27	2656.61
531.63	2669.60
531.99	2682.39
532.35	2694.89
532.71	2706.92
533.07	2719.28
533.42	2729.58
533.78	2740.25
534.14	2751.85
534.50	2762.29
534.86	2773.25
535.21	2782.24
535.57	2791.00
535.93	2799.65
536.29	2806.50
536.65	2813.22
537.00	2818.52
537.36	2825.04
537.72	2830.57
538.08	2835.59
538.44	2839.55
538.79	2843.20
539.15	2845.55
539.51	2847.26
539.87	2847.80
540.22	2846.81
540.58	2846.03
540.94	2846.29
541.29	2845.19
541.65	2842.79
542.01	2840.05
542.37	2835.70
542.72	2832.81
543.08	2828.36
543.44	2824.16
543.79	2819.42
544.15	2814.02
544.51	2808.85
544.87	2802.66
545.22	2795.55
545.58	2788.35
545.94	2781.31
546.29	2772.92
546.65	2764.77
547.01	2756.64
547.36	2748.87
547.72	2741.38
548.07	2732.14
548.43	2721.81
548.79	2711.36
549.14	2701.22
549.50	2691.21
549.86	2680.32
550.21	2667.90
550.57	2656.53
550.92	2643.40
551.28	2630.87
551.64	2618.55
551.99	2605.94
552.35	2592.94
552.70	2579.86
553.06	2567.20
553.41	2554.18
553.77	2540.80
554.13	2527.59
554.48	2513.30
554.84	2498.28
555.19	2483.82
555.55	2469.30
555.90	2455.22
556.26	2441.42
556.61	2426.50
556.97	2410.66
557.32	2395.26
557.68	2380.20
558.03	2364.83
558.39	2350.44
558.74	2336.61
559.10	2321.02
559.45	2305.67
559.81	2291.06
560.16	2276.12
560.52	2260.98
560.87	2245.91
561.23	2230.62
561.58	2215.80
561.94	2200.61
562.29	2185.03
562.64	2169.50
563.00	2154.15
563.35	2138.96
563.71	2123.42
564.06	2108.05
564.42	2093.20
564.77	2078.42
565.12	2063.39
565.48	2048.21
565.83	2033.22
566.19	2018.25
566.54	2003.55
566.89	1988.30
567.25	1972.92
567.60	1958.36
567.96	1943.06
568.31	1926.71
568.66	1911.25
569.02	1896.29
569.37	1881.91
569.72	1868.08
570.08	1853.81
570.43	1838.98
570.78	1824.05
571.14	1808.91
571.49	1793.90
571.84	1779.14
572.20	1763.30
572.55	1748.25
572.90	1733.26
573.26	1718.24
573.61	1702.62
573.96	1687.51
574.31	1672.33
574.67	1656.99
575.02	1641.39
575.37	1625.89
575.72	1611.03
576.08	1596.04
576.43	1580.40
576.78	1564.92
577.13	1549.65
577.49	1534.65
577.84	1520.12
578.19	1505.11
578.54	1490.16
578.90	1475.14
579.25	1460.04
579.60	1446.08
579.95	1431.85
580.30	1417.52
580.66	1403.03
581.01	1388.61
581.36	1374.33
581.71	1360.74
582.06	1347.17
582.42	1333.43
582.77	1320.16
583.12	1307.15
583.47	1294.04
583.82	1281.12
584.17	1267.84
584.53	1254.66
584.88	1241.70
585.23	1228.63
585.58	1215.94
585.93	1203.18
586.28	1191.37
586.63	1179.40
586.98	1167.07
587.34	1155.12
587.69	1143.01
588.04	1131.24
588.39	1119.75
588.74	1107.86
589.09	1096.17
589.44	1084.21
589.79	1072.78
590.14	1061.38
590.49	1050.06
590.84	1038.99
591.19	1028.18
591.54	1017.45
591.89	1006.33
592.25	995.63
592.60	984.80
592.95	974.13
593.30	963.80
593.65	953.18
594.00	942.85
594.35	933.33
594.70	923.19
595.05	913.65
595.40	903.89
595.75	894.01
596.10	884.72
596.45	875.40
596.80	866.44
597.15	857.52
597.50	848.63
597.85	839.93
598.19	831.23
598.54	822.53
598.89	814.35
599.24	806.54
599.59	798.52
599.94	791.08
600.29	783.65
600.64	776.09
600.99	768.46
601.34	761.03
601.69	753.14
602.04	746.08
602.39	738.93
602.74	731.94
603.08	725.12
603.43	718.28
603.78	711.42
604.13	704.65
604.48	697.92
604.83	691.38
605.18	684.95
605.53	678.64
605.87	672.34
606.22	666.10
606.57	659.79
606.92	653.42
607.27	647.08
607.62	640.94
607.96	635.03
608.31	629.54
608.66	623.99
609.01	618.69
609.36	613.34
609.70	607.96
610.05	602.63
610.40	597.45
610.75	592.26
611.10	587.26
611.44	582.26
611.79	577.39
612.14	572.44
612.49	567.53
612.83	562.91
613.18	558.31
613.53	553.74
613.88	549.30
614.22	545.18
614.57	541.01
614.92	536.91
615.27	532.94
615.61	528.86
615.96	524.82
616.31	520.79
616.65	516.91
617.00	513.12
617.35	509.37
617.70	505.64
618.04	502.02
618.39	498.51
618.74	495.24
619.08	491.92
619.43	488.70
619.78	485.43
620.12	482.15
620.47	479.09
620.82	476.08
621.16	473.08
621.51	470.14
621.85	467.22
622.20	464.35
622.55	461.44
622.89	458.59
623.24	455.91
623.59	453.28
623.93	450.71
624.28	448.29
624.62	446.07
624.97	443.85
625.32	441.53
625.66	439.18
626.01	436.78
626.35	434.53
626.70	432.23
627.04	430.12
627.39	427.96
627.73	425.90
628.08	423.88
628.43	421.87
628.77	419.78
629.12	417.81
629.46	415.92
629.81	414.19
630.15	412.36
630.50	410.56
630.84	408.81
631.19	407.07
631.53	405.41
631.88	403.57
632.22	401.85
632.57	400.37
632.91	398.86
633.26	397.43
633.60	396.01
633.95	394.67
634.29	393.22
634.64	391.83
634.98	390.28
635.32	388.92
635.67	387.68
636.01	386.44
636.36	385.25
636.70	384.13
637.05	382.86
637.39	381.75
637.73	380.61
638.08	379.55
638.42	378.52
638.77	377.36
639.11	376.18
639.45	375.01
639.80	373.81
640.14	372.69
640.49	371.54
640.83	370.40
641.17	369.31
641.52	368.24
641.86	367.21
642.20	366.33
642.55	365.26
642.89	364.20
643.23	363.23
643.58	362.34
643.92	361.32
644.26	360.37
644.61	359.46
644.95	358.51
645.29	357.48
645.64	356.45
645.98	355.53
646.32	354.71
646.66	353.83
647.01	352.97
647.35	352.19
647.69	351.37
648.04	350.64
648.38	349.84
648.72	349.08
649.06	348.29
649.41	347.48
649.75	346.73
650.09	346.01
650.43	345.23
650.78	344.45
651.12	343.71
651.46	342.98
651.80	342.23
652.14	341.56
652.49	340.94
652.83	340.25
653.17	339.53
653.51	338.85
653.85	338.26
654.20	337.63
654.54	336.91
654.88	336.22
655.22	335.58
655.56	334.89
655.90	334.26
656.25	333.63
656.59	333.01
656.93	332.43
657.27	331.91
657.61	331.31
657.95	330.75
658.29	330.18
658.64	329.61
658.98	329.02
659.32	328.43
659.66	327.86
660.00	327.35
660.34	326.84
660.68	326.25
661.02	325.62
661.36	325.04
661.70	324.49
662.05	323.96
662.39	323.44
662.73	322.98
663.07	322.56
663.41	322.09
663.75	321.56
664.09	321.04
664.43	320.41
664.77	319.90
665.11	319.33
665.45	318.81
665.79	318.30
666.13	317.77
666.47	317.23
666.81	316.66
667.15	316.07
667.49	315.59
667.83	315.18
668.17	314.73
668.51	314.29
668.85	313.88
669.19	313.52
669.53	312.99
669.87	312.46
670.21	311.90
670.55	311.39
670.89	311.01
671.23	310.56
671.57	310.16
671.91	309.79
672.25	309.42
672.58	309.07
672.92	308.63
673.26	308.27
673.60	307.90
673.94	307.54
674.28	307.20
674.62	306.82
674.96	306.36
675.30	305.97
675.64	305.55
675.97	305.08
676.31	304.61
676.65	304.17
676.99	303.84
677.33	303.40
677.67	303.01
678.01	302.52
678.34	302.10
678.68	301.70
679.02	301.24
679.36	300.80
679.70	300.34
680.04	299.95
680.37	299.54
680.71	299.15
681.05	298.78
681.39	298.35
681.73	297.88
682.06	297.46
682.40	297.06
682.74	296.70
683.08	296.40
683.42	296.01
683.75	295.67
684.09	295.21
684.43	294.82
684.77	294.40
685.10	294.03
685.44	293.65
685.78	293.25
686.12	292.85
686.45	292.43
686.79	292.01
687.13	291.62
687.46	291.17
687.80	290.75
688.14	290.26
688.48	289.84
688.81	289.43
689.15	289.08
689.49	288.64
689.82	288.21
690.16	287.67
690.50	287.22
690.83	286.79
691.17	286.34
691.51	285.92
691.84	285.55
692.18	285.11
692.52	284.64
692.85	284.20
693.19	283.83
693.52	283.41
693.86	282.98
694.20	282.54
694.53	282.13
694.87	281.68
695.21	281.26
695.54	280.82
695.88	280.38
696.21	279.89
696.55	279.45
696.88	279.02
697.22	278.59
697.56	278.20
697.89	277.74
698.23	277.34
698.56	276.91
698.90	276.49
699.23	276.05
699.57	275.67
699.90	275.25
700.24	274.81
700.58	274.42
700.91	274.08
701.25	273.85
701.58	273.54
701.92	273.20
702.25	272.82
702.59	272.43
702.92	272.04
703.26	271.66
703.59	271.27
703.93	271.02
704.26	270.66
704.60	270.27
704.93	269.89
705.26	269.49
705.60	269.15
705.93	268.73
706.27	268.44
706.60	268.11
706.94	267.82
707.27	267.43
707.61	267.05
707.94	266.64
708.27	266.12
708.61	265.69
708.94	265.30
709.28	264.94
709.61	264.58
709.94	264.26
710.28	263.95
710.61	263.64
710.95	263.15
711.28	262.94
711.61	262.59
711.95	262.31
712.28	262.00
712.61	261.65
712.95	261.42
713.28	261.14
713.61	260.78
713.95	260.40
714.28	260.09
714.61	259.77
714.95	259.47
715.28	259.15
715.61	258.87
715.95	258.59
716.28	258.29
716.61	258.04
716.95	257.72
717.28	257.43
717.61	257.14
717.94	256.87
718.28	256.48
718.61	256.18
718.94	255.88
719.27	255.61
719.61	255.37
719.94	255.06
720.27	254.72
720.60	254.45
720.94	254.19
721.27	253.94
721.60	253.72
721.93	253.46
722.27	253.27
722.60	253.01
722.93	252.73
723.26	252.51
723.59	252.25
723.93	252.03
724.26	251.81
724.59	251.57
724.92	251.36
725.25	251.18
725.59	250.97
725.92	250.77
726.25	250.55
726.58	250.34
726.91	250.12
727.24	249.92
727.57	249.70
727.91	249.46
728.24	249.29
728.57	249.07
728.90	248.88
729.23	248.60
729.56	248.48
729.89	248.29
730.22	248.08
730.55	247.88
730.89	247.68
731.22	247.47
731.55	247.28
731.88	247.09
732.21	246.87
732.54	246.68
732.87	246.50
733.20	246.33
733.53	246.15
733.86	245.97
734.19	245.78
734.52	245.64
734.85	245.61
735.18	245.40
735.51	245.29
735.84	245.14
736.17	245.03
736.50	244.79
736.83	244.84
737.16	244.68
737.49	244.52
737.82	244.36
738.15	244.21
738.48	244.05
738.81	243.88
739.14	243.70
739.47	243.53
739.80	243.37
740.13	243.24
740.46	243.06
740.79	242.88
741.12	242.73
741.45	242.54
741.78	242.28
742.11	242.18
742.44	241.99
742.77	241.85
743.10	241.68
743.43	241.52
743.75	241.19
744.08	241.31
744.41	241.15
744.74	241.00
745.07	240.83
745.40	240.73
745.73	240.67
746.06	240.55
746.39	240.45
746.71	240.29
747.04	240.13
747.37	240.00
747.70	239.90
748.03	239.78
748.36	239.69
748.68	239.57
749.01	239.40
749.34	239.28
749.67	239.16
750.00	239.06
750.33	239.08
750.65	238.97
750.98	238.59
751.31	238.48
751.64	238.40
751.97	238.39
752.29	238.26
752.62	238.07
752.95	237.95
753.28	237.81
753.60	237.70
753.93	237.64
754.26	237.54
754.59	237.39
754.91	237.26
755.24	237.14
755.57	237.03
755.90	236.92
756.22	236.80
756.55	236.66
756.88	236.52
757.20	236.30
757.53	236.16
757.86	236.06
758.19	235.98
758.51	235.87
758.84	235.68
759.17	235.56
759.49	235.48
759.82	235.48
760.15	235.41
760.47	235.32
760.80	235.18
761.13	235.11
761.45	235.04
761.78	234.97
762.11	234.90
762.43	234.78
762.76	234.71
763.08	234.66
763.41	234.59
763.74	234.53
764.06	234.44
764.39	234.38
764.71	234.30
765.04	234.20
765.37	234.13
765.69	234.06
766.02	233.98
766.34	233.90
766.67	233.75
767.00	233.71
767.32	233.75
767.65	233.78
767.97	233.70
768.30	233.63
768.62	233.56
768.95	233.47
769.27	233.42
769.60	233.37
769.92	233.26
770.25	233.17
770.57	233.07
770.90	233.01
771.22	232.93
771.55	232.88
771.87	232.84
772.20	232.77
772.52	232.87
772.85	233.03
773.17	232.98
773.50	232.92
773.82	232.84
774.15	232.70
774.47	232.54
774.80	232.48
775.12	232.42
775.45	232.37
775.77	232.33
776.09	232.29
776.42	232.27
776.74	232.29
777.07	232.23
777.39	232.21
777.72	232.15
778.04	232.13
778.36	232.07
778.69	232.02
779.01	232.00
779.33	231.81
779.66	231.56
779.98	231.51
780.31	231.48
780.63	231.51
780.95	231.50
781.28	231.47
781.60	231.41
781.92	231.38
782.25	231.34
782.57	231.31
782.89	231.27
783.22	231.21
783.54	231.14
783.86	231.13
784.19	231.09
784.51	231.12
784.83	231.07
785.16	231.04
785.48	231.02
785.80	230.99
786.12	230.97
786.45	230.95
786.77	230.93
787.09	230.90
787.42	230.80
787.74	230.78
788.06	230.77
788.38	230.74
788.71	230.70
789.03	230.68
789.35	230.68
789.67	230.63
789.99	230.61
790.32	230.57
790.64	230.56
790.96	230.70
791.28	230.60
791.61	230.57
791.93	230.55
792.25	230.51
792.57	230.61
792.89	230.57
793.21	230.56
793.54	230.52
793.86	230.47
794.18	230.45
794.50	230.40
794.82	230.37
795.14	230.37
795.47	230.37
795.79	230.34
796.11	230.28
796.43	230.26
796.75	230.23
797.07	230.22
797.39	230.19
797.71	230.02
798.04	230.01
798.36	229.99
798.68	229.97
799.00	229.97
799.32	229.86
799.64	229.87
799.96	229.84
800.28	229.85
800.60	229.83
800.92	229.83
801.24	229.81
801.56	229.81
801.89	229.78
802.21	229.76
802.53	229.71
802.85	229.73
803.17	229.78
803.49	229.73
803.81	229.69
804.13	229.66
804.45	229.62
804.77	229.61
805.09	229.60
805.41	229.55
805.73	229.49
806.05	229.42
806.37	229.38
806.69	229.33
807.01	229.30
807.33	229.30
807.65	229.22
807.97	229.28
808.28	229.23
808.60	229.21
808.92	229.17
809.24	229.27
809.56	229.22
809.88	229.15
810.20	229.15
810.52	229.17
810.84	229.14
811.16	229.11
811.48	229.08
811.80	229.12
812.12	229.12
812.43	229.14
812.75	229.14
813.07	229.13
813.39	229.13
813.71	229.09
814.03	229.06
814.35	229.05
814.67	228.96
814.98	228.93
815.30	228.93
815.62	228.90
815.94	228.76
816.26	228.75
816.58	228.72
816.89	228.71
817.21	228.66
817.53	228.66
817.85	228.68
818.17	228.67
818.48	228.59
818.80	228.62
819.12	228.59
819.44	228.54
819.76	228.50
820.07	228.49
820.39	228.48
820.71	228.49
821.03	228.48
821.34	228.46
821.66	228.47
821.98	228.47
822.30	228.45
822.61	228.57
822.93	228.54
823.25	228.53
823.57	228.51
823.88	228.52
824.20	228.51
824.52	228.52
824.83	228.50
825.15	228.47
825.47	228.44
825.79	228.44
826.10	228.43
826.42	228.43
826.74	228.42
827.05	228.41
827.37	228.40
827.69	228.40
828.00	228.39
828.32	228.38
828.64	228.36
828.95	228.46
829.27	228.38
829.58	228.37
829.90	228.40
830.22	228.40
830.53	228.37
830.85	228.35
831.17	228.30
831.48	228.29
831.80	228.31
832.11	228.30
832.43	228.27
832.75	228.26
833.06	228.36
833.38	228.30
833.69	228.29
834.01	228.30
834.32	228.29
834.64	228.27
834.96	228.25
835.27	228.24
835.59	228.15
835.90	228.12
836.22	228.12
836.53	228.07
836.85	228.04
837.16	228.21
837.48	228.20
837.79	228.25
838.11	228.25
838.42	228.24
838.74	228.25
839.05	228.22
839.37	228.22
839.68	228.10
840.00	228.10
840.31	228.12
840.63	228.11
840.94	228.09
841.26	228.07
841.57	228.07
841.88	228.08
842.20	228.07
842.51	228.04
842.83	228.04
843.14	228.20
843.46	228.19
843.77	228.08
844.08	228.07
844.40	228.02
844.71	227.98
845.03	227.96
845.34	227.94
845.65	227.93
845.97	227.93
846.28	227.94
846.60	227.94
846.91	227.91
847.22	227.90
847.54	227.93
847.85	227.95
848.16	227.93
848.48	227.89
848.79	227.95
849.10	227.96
849.42	227.96
849.73	227.78
850.04	227.78
850.36	227.73
850.67	227.77
850.98	227.77
851.30	227.78
851.61	227.78
851.92	227.77
852.23	227.83
852.55	227.85
852.86	227.85
853.17	227.86
853.49	227.89
853.80	227.91
854.11	227.91
854.42	227.93
854.74	227.92
855.05	227.92
855.36	227.83
855.67	227.83
855.99	227.83
856.30	228.04
856.61	228.04
856.92	228.04
857.23	228.05
857.55	228.02
857.86	228.00
858.17	228.03
858.48	228.02
858.79	227.97
859.11	227.98
859.42	227.97
859.73	227.94
860.04	227.93
860.35	227.89
860.66	227.84
860.98	227.82
861.29	227.84
861.60	227.84
861.91	227.89
862.22	227.87
862.53	227.84
862.84	227.63
863.16	227.66
863.47	227.63
863.78	227.60
864.09	227.62
864.40	227.64
864.71	227.64
865.02	227.66
865.33	227.65
865.64	227.62
865.95	227.61
866.27	227.72
866.58	227.71
866.89	227.73
867.20	227.72
867.51	227.69
867.82	227.67
868.13	227.73
868.44	227.68
868.75	227.72
869.06	227.74
869.37	227.75
869.68	227.70
869.99	227.73
870.30	227.74
870.61	227.75
870.92	227.73
871.23	227.70
871.54	227.72
871.85	227.75
872.16	227.76
872.47	227.75
872.78	227.65
873.09	227.66
873.40	227.63
873.71	227.64
874.02	227.65
874.33	227.63
874.64	227.59
874.95	227.61
875.26	227.56
875.56	227.55
875.87	227.54
876.18	227.53
876.49	227.69
876.80	227.67
877.11	227.63
877.42	227.64
877.73	227.63
878.04	227.59
878.35	227.59
878.66	227.59
878.96	227.60
879.27	227.59
879.58	227.58
879.89	227.59
880.20	227.64
880.51	227.64
880.82	227.65
881.12	227.66
881.43	227.62
881.74	227.60
882.05	227.60
882.36	227.62
882.67	227.63
882.97	227.44
883.28	227.44
883.59	227.43
883.90	227.45
884.21	227.49
884.51	227.48
884.82	227.46
885.13	227.46
885.44	227.45
885.74	227.45
886.05	227.44
886.36	227.44
886.67	227.38
886.98	227.47
887.28	227.48
887.59	227.48
887.90	227.49
888.20	227.48
888.51	227.51
888.82	227.48
889.13	227.50
889.43	227.67
889.74	227.66
890.05	227.65
890.35	227.63
890.66	227.59
890.97	227.58
891.28	227.55
891.58	227.54
891.89	227.55
892.20	227.53
892.50	227.52
892.81	227.51
893.12	227.50
893.42	227.42
893.73	227.41
894.04	227.41
894.34	227.43
894.65	227.43
894.95	227.43
895.26	227.43
895.57	227.49
895.87	227.30
896.18	227.33
896.48	227.35
896.79	227.35
897.10	227.37
897.40	227.39
897.71	227.42
898.01	227.40
898.32	227.42
898.63	227.42
898.93	227.43
899.24	227.43
899.54	227.42
899.85	227.41
900.15	227.39
900.46	227.39
900.76	227.41
901.07	227.39
901.38	227.37
901.68	227.40
901.99	227.31
902.29	227.33
902.60	227.31
902.90	227.30
903.21	227.29
903.51	227.27
903.82	227.31
904.12	227.32
904.43	227.33
904.73	227.31
905.03	227.32
905.34	227.49
905.64	227.49
905.95	227.50
906.25	227.50
906.56	227.48
906.86	227.49
907.17	227.47
907.47	227.48
907.77	227.46
908.08	227.43
908.38	227.45
908.69	227.46
908.99	227.49
909.30	227.51
909.60	227.52
909.90	227.52
910.21	227.47
910.51	227.44
910.81	227.44
911.12	227.45
911.42	227.46
911.73	227.28
912.03	227.30
912.33	227.33
912.64	227.32
912.94	227.31
913.24	227.28
913.55	227.26
913.85	227.25
914.15	227.29
914.46	227.31
914.76	227.28
915.06	227.26
915.37	227.22
915.67	227.19
915.97	227.18
916.27	227.15
916.58	227.17
916.88	227.17
917.18	227.15
917.49	227.27
917.79	227.26
918.09	227.28
918.39	227.32
918.70	227.30
919.00	227.30
919.30	227.40
919.60	227.39
919.91	227.38
920.21	227.39
920.51	227.34
920.81	227.32
921.12	227.34
921.42	227.34
921.72	227.35
922.02	227.36
922.32	227.39
922.63	227.40
922.93	227.49
923.23	227.49
923.53	227.48
923.83	227.35
924.13	227.36
924.44	227.36
924.74	227.37
925.04	227.41
925.34	227.41
925.64	227.32
925.94	227.33
926.24	227.44
926.55	227.42
926.85	227.46
927.15	227.46
927.45	227.46
927.75	227.47
928.05	227.47
928.35	227.46
928.65	227.48
928.95	227.48
929.26	227.39
929.56	227.42
929.86	227.44
930.16	227.42
930.46	227.40
930.76	227.41
931.06	227.32
931.36	227.28
931.66	227.31
931.96	227.33
932.26	227.34
932.56	227.26
932.86	227.27
933.16	227.28
933.46	227.26
933.76	227.24
934.06	227.26
934.36	227.32
934.66	227.31
934.96	227.28
935.26	227.31
935.56	227.34
935.86	227.30
936.16	227.27
936.46	227.27
936.76	227.25
937.06	227.22
937.36	227.23
937.66	227.24
937.96	227.22
938.26	227.19
938.56	227.18
938.86	227.19
939.16	227.23
939.46	227.24
939.76	227.25
940.06	227.26
940.35	227.24
940.65	227.15
940.95	227.18
941.25	227.15
941.55	227.12
941.85	227.11
942.15	227.15
942.45	227.20
942.75	227.21
943.04	227.22
943.34	227.26
943.64	227.26
943.94	227.24
944.24	227.23
944.54	227.24
944.84	227.23
945.13	227.20
945.43	227.16
945.73	227.15
946.03	227.12
946.33	227.09
946.62	227.06
946.92	227.07
947.22	227.07
947.52	227.08
947.82	227.10
948.11	227.09
948.41	227.05
948.71	227.00
949.01	227.01
949.31	227.00
949.60	226.98
949.90	227.01
950.20	227.00
950.50	226.99
950.79	226.98
951.09	227.01
951.39	227.02
951.69	227.00
951.98	227.04
952.28	227.06
952.58	227.07
952.87	227.08
953.17	227.12
953.47	227.10
953.76	227.10
954.06	227.06
954.36	227.03
954.66	227.03
954.95	227.07
955.25	227.08
955.55	227.10
955.84	227.07
956.14	227.09
956.44	227.10
956.73	227.08
957.03	227.09
957.32	227.08
957.62	227.06
957.92	227.11
958.21	227.09
958.51	227.28
958.81	227.30
959.10	227.31
959.40	227.33
959.69	227.34
959.99	227.36
960.29	227.36
960.58	227.35
960.88	227.42
961.17	227.40
961.47	227.41
961.76	227.40
962.06	227.42
962.36	227.39
962.65	227.41
962.95	227.42
963.24	227.41
963.54	227.41
963.83	227.43
964.13	227.41
964.42	227.40
964.72	227.25
965.01	227.25
965.31	227.24
965.60	227.20
965.90	227.31
966.19	227.26
966.49	227.29
966.78	227.29
967.08	227.26
967.37	227.27
967.67	227.24
967.96	227.26
968.26	227.26
968.55	227.31
968.85	227.30
969.14	227.29
969.43	227.29
969.73	227.27
970.02	227.27
970.32	227.26
970.61	227.23
970.91	227.18
971.20	227.17
971.49	227.15
971.79	227.17
972.08	227.04
972.38	227.06
972.67	227.05
972.96	227.08
973.26	227.05
973.55	227.10
973.85	227.10
974.14	227.08
974.43	227.08
974.73	227.04
975.02	227.02
975.31	227.02
975.61	227.02
975.90	227.01
976.19	226.99
976.49	227.00
976.78	227.01
977.07	227.02
977.37	227.02
977.66	227.04
977.95	227.02
978.24	227.03
978.54	227.07
978.83	227.05
979.12	227.03
979.42	227.03
979.71	227.00
980.00	226.98
980.29	226.99
980.59	226.96
980.88	227.01
981.17	227.00
981.46	227.00
981.76	227.00
982.05	227.06
982.34	227.07
982.63	227.05
982.93	227.07
983.22	227.10
983.51	227.12
983.80	227.14
984.09	227.16
984.39	227.15
984.68	227.11
984.97	227.13
985.26	227.12
985.55	227.14
985.85	227.11
986.14	227.15
986.43	227.18
986.72	227.17
987.01	227.11
987.30	227.12
987.59	227.11
987.89	227.12
988.18	227.07
988.47	227.06
988.76	227.05
989.05	227.02
989.34	227.00
989.63	227.03
989.92	227.00
990.22	226.97
990.51	226.96
990.80	226.95
991.09	226.97
991.38	226.99
991.67	226.96
991.96	226.95
992.25	226.94
992.54	226.91
992.83	226.92
993.12	226.92
993.41	226.95
993.70	227.02
993.99	227.05
994.28	227.08
994.58	227.10
994.87	227.08
995.16	227.09
995.45	227.08
995.74	227.02
996.03	227.05
996.32	227.08
996.61	227.12
996.90	227.12
997.19	227.10
997.48	227.09
997.77	227.08
998.06	227.10
998.34	227.09
998.63	227.09
998.92	227.09
999.21	227.11
999.50	227.09
999.79	227.03
1000.08	227.01
1000.37	227.00
1000.66	226.98
1000.95	227.03
1001.24	227.03
1001.53	227.06
1001.82	227.06
1002.11	227.01
1002.40	227.02
1002.68	227.05
1002.97	227.18
1003.26	227.16
1003.55	227.14
1003.84	227.15
1004.13	227.20
1004.42	227.20
1004.71	227.20
1004.99	227.20
1005.28	227.26
1005.57	227.25
1005.86	227.24
1006.15	227.23
1006.44	227.21
1006.72	227.23
1007.01	227.20
1007.30	227.20
1007.59	227.18
1007.88	227.18
1008.17	227.19
1008.45	227.16
1008.74	227.10
1009.03	227.02
1009.32	227.03
1009.60	227.03
1009.89	227.02
1010.18	226.94
1010.47	226.94
1010.76	226.94
1011.04	226.93
1011.33	226.90
1011.62	226.93
1011.91	226.95
1012.19	226.96
1012.48	226.96
1012.77	226.95
1013.05	227.02
1013.34	227.03
1013.63	227.03
1013.92	227.04
1014.20	227.03
1014.49	227.04
1014.78	227.05
1015.06	227.00
1015.35	226.99
1015.64	227.02
1015.92	227.06
1016.21	227.06
1016.50	227.06
1016.78	227.07
1017.07	227.09
1017.36	227.06
1017.64	227.03
1017.93	227.04
1018.22	227.03
1018.50	227.02
1018.79	227.02
1019.08	226.95
1019.36	226.95
1019.65	226.93
1019.93	226.98
1020.22	227.01
1020.51	227.10
1020.79	227.08
1021.08	226.74
1021.36	226.74
1021.65	226.90
1021.94	226.86
1022.22	227.17
1022.51	226.62
1022.79	227.84
1023.08	227.29
1023.36	229.02
1023.65	226.59
>>>>>End Processed Spectral Data<<<<<
