SpectraSuite Data File
++++++++++++++++++++++++++++++++++++
Date: Tue Oct 06 17:28:19 EDT 2015
User: lab3
Dark Spectrum Present: No
Reference Spectrum Present: No
Number of Sampled Component Spectra: 1
Spectrometers: USB2E7196
Integration Time (usec): 66000 (USB2E7196)
Spectra Averaged: 1000 (USB2E7196)
Boxcar Smoothing: 10 (USB2E7196)
Correct for Electrical Dark: No (USB2E7196)
Strobe/Lamp Enabled: No (USB2E7196)
Correct for Detector Non-linearity: No (USB2E7196)
Correct for Stray Light: No (USB2E7196)
Number of Pixels in Processed Spectrum: 2048
>>>>>Begin Processed Spectral Data<<<<<
339.09	0.00
339.48	215.19
339.86	216.55
340.24	217.92
340.63	219.54
341.01	223.48
341.39	222.10
341.78	223.45
342.16	224.95
342.54	225.09
342.93	213.63
343.31	224.42
343.69	224.96
344.07	225.42
344.46	225.88
344.84	226.27
345.22	226.47
345.60	226.76
345.99	226.97
346.37	227.11
346.75	227.22
347.13	227.33
347.52	227.41
347.90	227.53
348.28	227.58
348.66	227.66
349.05	227.64
349.43	227.71
349.81	227.78
350.19	227.84
350.57	227.93
350.96	228.01
351.34	228.12
351.72	228.23
352.10	228.35
352.48	228.41
352.87	228.47
353.25	228.52
353.63	228.57
354.01	228.62
354.39	228.70
354.77	228.78
355.15	228.89
355.54	228.93
355.92	228.93
356.30	229.01
356.68	229.20
357.06	229.27
357.44	229.31
357.82	229.36
358.20	229.59
358.58	229.64
358.97	229.71
359.35	229.80
359.73	229.88
360.11	229.93
360.49	230.00
360.87	230.03
361.25	230.11
361.63	230.20
362.01	230.26
362.39	230.28
362.77	230.34
363.15	230.36
363.53	230.38
363.91	230.43
364.29	230.44
364.67	230.30
365.05	230.33
365.43	230.38
365.81	230.43
366.19	230.36
366.57	230.44
366.95	230.44
367.33	230.40
367.71	230.40
368.09	230.43
368.47	230.43
368.85	230.42
369.23	230.46
369.61	230.38
369.99	230.42
370.37	230.43
370.75	230.54
371.13	230.51
371.51	230.46
371.89	230.44
372.27	230.43
372.65	230.41
373.03	230.37
373.41	230.32
373.78	230.27
374.16	230.14
374.54	230.04
374.92	229.98
375.30	229.94
375.68	229.86
376.06	229.83
376.44	229.77
376.82	229.74
377.19	229.70
377.57	229.65
377.95	229.54
378.33	229.48
378.71	229.29
379.09	229.25
379.47	229.24
379.84	229.18
380.22	229.12
380.60	229.05
380.98	229.01
381.36	228.96
381.73	228.89
382.11	228.89
382.49	228.86
382.87	228.79
383.25	228.76
383.62	228.94
384.00	228.87
384.38	228.84
384.76	228.84
385.13	228.85
385.51	228.82
385.89	228.77
386.27	228.75
386.64	228.73
387.02	228.68
387.40	228.63
387.78	228.62
388.15	228.59
388.53	228.57
388.91	228.54
389.29	228.51
389.66	228.52
390.04	228.48
390.42	228.49
390.79	228.49
391.17	228.49
391.55	228.27
391.92	228.25
392.30	228.26
392.68	228.22
393.05	228.20
393.43	228.21
393.81	228.23
394.18	228.20
394.56	228.23
394.94	228.29
395.31	228.29
395.69	228.36
396.06	228.42
396.44	228.45
396.82	228.47
397.19	228.60
397.57	228.61
397.95	228.69
398.32	228.69
398.70	228.76
399.07	228.86
399.45	228.92
399.82	228.99
400.20	229.05
400.58	229.13
400.95	229.15
401.33	229.28
401.70	229.50
402.08	229.65
402.45	229.77
402.83	229.93
403.20	230.10
403.58	230.24
403.95	230.44
404.33	230.68
404.71	230.89
405.08	231.19
405.46	231.45
405.83	231.72
406.21	232.01
406.58	232.34
406.96	232.65
407.33	233.03
407.70	233.45
408.08	234.02
408.45	234.52
408.83	235.07
409.20	235.56
409.58	236.02
409.95	236.65
410.33	237.34
410.70	237.98
411.08	238.74
411.45	239.55
411.82	240.36
412.20	241.28
412.57	242.38
412.95	243.27
413.32	244.42
413.69	245.61
414.07	246.86
414.44	248.24
414.82	249.64
415.19	251.28
415.56	252.95
415.94	254.70
416.31	256.66
416.68	258.64
417.06	260.92
417.43	263.05
417.81	265.49
418.18	267.99
418.55	270.72
418.93	273.57
419.30	276.54
419.67	279.70
420.04	282.95
420.42	286.36
420.79	290.26
421.16	294.22
421.54	298.22
421.91	302.40
422.28	306.76
422.66	311.45
423.03	315.91
423.40	320.60
423.77	325.61
424.15	330.75
424.52	336.05
424.89	341.82
425.26	347.53
425.64	352.84
426.01	358.79
426.38	364.86
426.75	371.13
427.13	377.54
427.50	384.24
427.87	391.20
428.24	398.21
428.61	404.95
428.99	412.18
429.36	420.15
429.73	427.77
430.10	435.36
430.47	443.12
430.85	451.15
431.22	459.69
431.59	468.46
431.96	477.02
432.33	486.56
432.70	495.61
433.08	506.34
433.45	516.46
433.82	526.47
434.19	537.67
434.56	548.67
434.93	559.39
435.30	570.01
435.68	582.06
436.05	593.83
436.42	605.62
436.79	616.41
437.16	628.11
437.53	640.61
437.90	653.11
438.27	665.41
438.64	678.67
439.01	690.73
439.38	701.77
439.75	712.46
440.13	724.64
440.50	736.21
440.87	745.47
441.24	755.64
441.61	766.80
441.98	775.06
442.35	784.85
442.72	794.77
443.09	804.21
443.46	810.37
443.83	815.05
444.20	818.93
444.57	824.56
444.94	827.85
445.31	831.29
445.68	834.21
446.05	836.41
446.42	836.09
446.79	835.50
447.16	835.04
447.53	834.62
447.90	830.99
448.27	827.56
448.64	822.16
449.01	818.40
449.37	810.64
449.74	803.58
450.11	794.50
450.48	784.50
450.85	774.53
451.22	765.93
451.59	757.44
451.96	749.77
452.33	738.65
452.70	728.79
453.07	716.83
453.43	704.92
453.80	693.29
454.17	682.14
454.54	671.87
454.91	660.27
455.28	649.31
455.65	638.99
456.02	628.03
456.38	619.22
456.75	607.96
457.12	598.88
457.49	589.75
457.86	581.09
458.23	573.47
458.59	565.06
458.96	556.43
459.33	548.88
459.70	541.18
460.07	535.30
460.43	528.39
460.80	521.92
461.17	516.30
461.54	510.20
461.91	504.50
462.27	498.69
462.64	493.96
463.01	488.56
463.38	483.10
463.74	478.20
464.11	473.83
464.48	469.89
464.85	465.64
465.21	462.35
465.58	458.71
465.95	454.60
466.32	451.33
466.68	448.13
467.05	444.89
467.42	441.74
467.78	438.37
468.15	435.27
468.52	432.99
468.88	429.98
469.25	427.25
469.62	425.06
469.98	422.71
470.35	420.59
470.72	418.67
471.08	416.76
471.45	415.11
471.82	413.27
472.18	411.36
472.55	410.12
472.92	408.60
473.28	407.41
473.65	406.15
474.02	404.93
474.38	403.89
474.75	403.29
475.11	402.47
475.48	402.08
475.85	401.66
476.21	401.40
476.58	401.25
476.94	401.41
477.31	401.46
477.67	401.54
478.04	401.86
478.41	402.28
478.77	402.88
479.14	403.29
479.50	404.11
479.87	405.15
480.23	406.15
480.60	407.10
480.96	408.06
481.33	409.49
481.69	410.92
482.06	412.33
482.42	413.62
482.79	415.22
483.15	417.12
483.52	419.25
483.88	421.29
484.25	423.43
484.61	425.71
484.98	428.15
485.34	430.91
485.71	433.77
486.07	436.84
486.44	439.87
486.80	443.27
487.17	446.74
487.53	450.52
487.90	454.47
488.26	458.81
488.62	463.34
488.99	467.88
489.35	472.63
489.72	477.74
490.08	483.13
490.44	488.63
490.81	494.33
491.17	500.22
491.54	506.53
491.90	512.98
492.26	519.87
492.63	527.10
492.99	534.61
493.36	542.28
493.72	550.36
494.08	558.65
494.45	567.31
494.81	576.39
495.17	585.72
495.54	595.57
495.90	605.83
496.26	616.29
496.63	627.00
496.99	638.13
497.35	649.77
497.72	661.68
498.08	673.92
498.44	686.47
498.80	699.70
499.17	713.25
499.53	727.25
499.89	741.62
500.26	756.21
500.62	771.17
500.98	786.95
501.34	802.74
501.71	819.34
502.07	836.21
502.43	853.52
502.79	871.01
503.16	889.00
503.52	907.18
503.88	925.77
504.24	944.85
504.60	964.15
504.97	984.00
505.33	1004.35
505.69	1025.75
506.05	1047.31
506.41	1068.77
506.78	1090.31
507.14	1112.43
507.50	1135.03
507.86	1157.96
508.22	1181.08
508.59	1204.08
508.95	1228.13
509.31	1252.56
509.67	1277.60
510.03	1302.60
510.39	1327.49
510.75	1352.43
511.12	1377.70
511.48	1403.08
511.84	1428.43
512.20	1454.10
512.56	1480.76
512.92	1507.22
513.28	1533.05
513.64	1559.23
514.00	1585.72
514.37	1612.50
514.73	1639.26
515.09	1665.33
515.45	1691.71
515.81	1718.19
516.17	1744.40
516.53	1769.88
516.89	1795.22
517.25	1820.81
517.61	1846.10
517.97	1872.04
518.33	1897.32
518.69	1922.43
519.05	1947.98
519.41	1973.63
519.77	1999.22
520.13	2023.37
520.49	2047.47
520.85	2071.87
521.21	2095.75
521.57	2119.94
521.93	2143.05
522.29	2166.75
522.65	2190.25
523.01	2213.37
523.37	2235.80
523.73	2258.88
524.09	2281.69
524.45	2304.09
524.81	2325.82
525.17	2347.43
525.53	2368.22
525.89	2389.37
526.25	2410.13
526.61	2429.31
526.97	2448.39
527.33	2467.33
527.68	2485.93
528.04	2504.28
528.40	2521.30
528.76	2538.50
529.12	2555.18
529.48	2572.36
529.84	2586.84
530.20	2601.71
530.56	2615.83
530.91	2630.07
531.27	2643.77
531.63	2656.46
531.99	2668.92
532.35	2681.05
532.71	2692.72
533.07	2704.72
533.42	2714.85
533.78	2725.20
534.14	2736.38
534.50	2746.53
534.86	2757.16
535.21	2765.79
535.57	2774.13
535.93	2782.36
536.29	2788.82
536.65	2795.10
537.00	2800.03
537.36	2806.20
537.72	2811.46
538.08	2816.17
538.44	2819.79
538.79	2823.16
539.15	2825.25
539.51	2826.61
539.87	2826.82
540.22	2825.48
540.58	2824.34
540.94	2824.09
541.29	2822.69
541.65	2820.01
542.01	2816.94
542.37	2812.26
542.72	2809.13
543.08	2804.41
543.44	2799.93
543.79	2794.99
544.15	2789.37
544.51	2783.90
544.87	2777.47
545.22	2770.15
545.58	2762.66
545.94	2755.39
546.29	2746.69
546.65	2738.36
547.01	2730.10
547.36	2722.18
547.72	2714.52
548.07	2705.18
548.43	2694.76
548.79	2684.16
549.14	2673.89
549.50	2663.71
549.86	2652.74
550.21	2640.18
550.57	2628.71
550.92	2615.56
551.28	2602.89
551.64	2590.48
551.99	2577.82
552.35	2564.86
552.70	2551.70
553.06	2539.05
553.41	2526.01
553.77	2512.69
554.13	2499.34
554.48	2485.02
554.84	2470.04
555.19	2455.52
555.55	2440.96
555.90	2426.85
556.26	2412.97
556.61	2398.09
556.97	2382.23
557.32	2366.87
557.68	2351.85
558.03	2336.59
558.39	2322.20
558.74	2308.45
559.10	2292.90
559.45	2277.63
559.81	2262.95
560.16	2248.01
560.52	2232.87
560.87	2217.84
561.23	2202.58
561.58	2187.86
561.94	2172.76
562.29	2157.25
562.64	2141.81
563.00	2126.56
563.35	2111.44
563.71	2095.98
564.06	2080.71
564.42	2066.02
564.77	2051.35
565.12	2036.40
565.48	2021.27
565.83	2006.38
566.19	1991.46
566.54	1976.84
566.89	1961.68
567.25	1946.49
567.60	1932.13
567.96	1917.03
568.31	1900.87
568.66	1885.56
569.02	1870.77
569.37	1856.45
569.72	1842.72
570.08	1828.59
570.43	1813.88
570.78	1799.08
571.14	1784.13
571.49	1769.25
571.84	1754.66
572.20	1738.98
572.55	1724.04
572.90	1709.22
573.26	1694.43
573.61	1679.06
573.96	1664.14
574.31	1649.19
574.67	1634.01
575.02	1618.57
575.37	1603.18
575.72	1588.49
576.08	1573.61
576.43	1558.14
576.78	1542.92
577.13	1527.87
577.49	1513.07
577.84	1498.74
578.19	1483.94
578.54	1469.26
578.90	1454.46
579.25	1439.57
579.60	1425.74
579.95	1411.76
580.30	1397.70
580.66	1383.36
581.01	1369.12
581.36	1355.06
581.71	1341.64
582.06	1328.29
582.42	1314.76
582.77	1301.73
583.12	1288.89
583.47	1276.04
583.82	1263.35
584.17	1250.19
584.53	1237.14
584.88	1224.42
585.23	1211.55
585.58	1199.07
585.93	1186.49
586.28	1174.81
586.63	1163.00
586.98	1150.88
587.34	1139.10
587.69	1127.11
588.04	1115.55
588.39	1104.22
588.74	1092.50
589.09	1080.97
589.44	1069.18
589.79	1057.94
590.14	1046.71
590.49	1035.58
590.84	1024.68
591.19	1014.03
591.54	1003.58
591.89	992.68
592.25	982.10
592.60	971.47
592.95	960.98
593.30	950.79
593.65	940.38
594.00	930.24
594.35	920.95
594.70	910.97
595.05	901.57
595.40	891.96
595.75	882.26
596.10	873.15
596.45	864.04
596.80	855.25
597.15	846.47
597.50	837.72
597.85	829.22
598.19	820.62
598.54	812.08
598.89	804.00
599.24	796.33
599.59	788.45
599.94	781.13
600.29	773.84
600.64	766.43
600.99	758.92
601.34	751.64
601.69	743.88
602.04	736.98
602.39	729.97
602.74	723.16
603.08	716.47
603.43	709.79
603.78	703.04
604.13	696.38
604.48	689.80
604.83	683.43
605.18	677.08
605.53	670.93
605.87	664.73
606.22	658.62
606.57	652.45
606.92	646.22
607.27	640.04
607.62	634.02
607.96	628.23
608.31	622.84
608.66	617.42
609.01	612.21
609.36	606.97
609.70	601.71
610.05	596.47
610.40	591.38
610.75	586.26
611.10	581.38
611.44	576.50
611.79	571.72
612.14	566.86
612.49	562.09
612.83	557.56
613.18	553.06
613.53	548.56
613.88	544.22
614.22	540.21
614.57	536.07
614.92	532.05
615.27	528.16
615.61	524.19
615.96	520.23
616.31	516.27
616.65	512.44
617.00	508.74
617.35	505.09
617.70	501.44
618.04	497.91
618.39	494.48
618.74	491.25
619.08	487.98
619.43	484.82
619.78	481.60
620.12	478.38
620.47	475.38
620.82	472.45
621.16	469.49
621.51	466.62
621.85	463.76
622.20	460.95
622.55	458.11
622.89	455.30
623.24	452.68
623.59	450.10
623.93	447.59
624.28	445.21
624.62	443.02
624.97	440.87
625.32	438.60
625.66	436.28
626.01	433.94
626.35	431.74
626.70	429.48
627.04	427.44
627.39	425.34
627.73	423.32
628.08	421.34
628.43	419.39
628.77	417.32
629.12	415.39
629.46	413.56
629.81	411.86
630.15	410.07
630.50	408.30
630.84	406.60
631.19	404.91
631.53	403.28
631.88	401.48
632.22	399.76
632.57	398.33
632.91	396.89
633.26	395.48
633.60	394.08
633.95	392.78
634.29	391.34
634.64	389.97
634.98	388.45
635.32	387.10
635.67	385.89
636.01	384.69
636.36	383.53
636.70	382.44
637.05	381.19
637.39	380.10
637.73	378.97
638.08	377.91
638.42	376.90
638.77	375.75
639.11	374.60
639.45	373.46
639.80	372.26
640.14	371.13
640.49	370.00
640.83	368.89
641.17	367.80
641.52	366.75
641.86	365.72
642.20	364.86
642.55	363.81
642.89	362.77
643.23	361.79
643.58	360.93
643.92	359.90
644.26	358.96
644.61	358.07
644.95	357.14
645.29	356.13
645.64	355.09
645.98	354.17
646.32	353.37
646.66	352.50
647.01	351.66
647.35	350.89
647.69	350.10
648.04	349.38
648.38	348.60
648.72	347.84
649.06	347.08
649.41	346.27
649.75	345.52
650.09	344.80
650.43	344.04
650.78	343.25
651.12	342.52
651.46	341.79
651.80	341.07
652.14	340.40
652.49	339.79
652.83	339.13
653.17	338.41
653.51	337.72
653.85	337.14
654.20	336.51
654.54	335.79
654.88	335.08
655.22	334.44
655.56	333.79
655.90	333.14
656.25	332.52
656.59	331.91
656.93	331.34
657.27	330.82
657.61	330.23
657.95	329.68
658.29	329.11
658.64	328.55
658.98	327.95
659.32	327.35
659.66	326.78
660.00	326.27
660.34	325.76
660.68	325.18
661.02	324.55
661.36	323.95
661.70	323.40
662.05	322.88
662.39	322.34
662.73	321.87
663.07	321.45
663.41	320.99
663.75	320.47
664.09	319.97
664.43	319.34
664.77	318.82
665.11	318.23
665.45	317.71
665.79	317.21
666.13	316.70
666.47	316.18
666.81	315.61
667.15	315.00
667.49	314.53
667.83	314.11
668.17	313.67
668.51	313.25
668.85	312.87
669.19	312.52
669.53	312.01
669.87	311.47
670.21	310.91
670.55	310.40
670.89	310.00
671.23	309.53
671.57	309.13
671.91	308.77
672.25	308.44
672.58	308.11
672.92	307.66
673.26	307.32
673.60	306.96
673.94	306.60
674.28	306.28
674.62	305.91
674.96	305.48
675.30	305.09
675.64	304.67
675.97	304.19
676.31	303.70
676.65	303.27
676.99	302.95
677.33	302.52
677.67	302.15
678.01	301.67
678.34	301.26
678.68	300.87
679.02	300.42
679.36	299.98
679.70	299.52
680.04	299.14
680.37	298.72
680.71	298.32
681.05	297.96
681.39	297.53
681.73	297.06
682.06	296.63
682.40	296.23
682.74	295.88
683.08	295.59
683.42	295.22
683.75	294.88
684.09	294.41
684.43	294.04
684.77	293.61
685.10	293.23
685.44	292.85
685.78	292.44
686.12	292.04
686.45	291.62
686.79	291.19
687.13	290.78
687.46	290.33
687.80	289.91
688.14	289.44
688.48	289.03
688.81	288.63
689.15	288.28
689.49	287.85
689.82	287.41
690.16	286.90
690.50	286.44
690.83	286.01
691.17	285.58
691.51	285.14
691.84	284.76
692.18	284.34
692.52	283.88
692.85	283.45
693.19	283.09
693.52	282.68
693.86	282.25
694.20	281.84
694.53	281.44
694.87	280.99
695.21	280.56
695.54	280.14
695.88	279.70
696.21	279.21
696.55	278.79
696.88	278.35
697.22	277.93
697.56	277.53
697.89	277.06
698.23	276.66
698.56	276.22
698.90	275.82
699.23	275.39
699.57	275.01
699.90	274.61
700.24	274.16
700.58	273.79
700.91	273.46
701.25	273.21
701.58	272.90
701.92	272.57
702.25	272.22
702.59	271.81
702.92	271.44
703.26	271.08
703.59	270.70
703.93	270.46
704.26	270.11
704.60	269.75
704.93	269.38
705.26	268.99
705.60	268.68
705.93	268.27
706.27	267.96
706.60	267.65
706.94	267.35
707.27	266.95
707.61	266.59
707.94	266.18
708.27	265.66
708.61	265.23
708.94	264.83
709.28	264.46
709.61	264.12
709.94	263.79
710.28	263.45
710.61	263.13
710.95	262.65
711.28	262.42
711.61	262.08
711.95	261.79
712.28	261.45
712.61	261.09
712.95	260.87
713.28	260.61
713.61	260.24
713.95	259.88
714.28	259.58
714.61	259.26
714.95	258.95
715.28	258.66
715.61	258.38
715.95	258.11
716.28	257.81
716.61	257.56
716.95	257.25
717.28	256.97
717.61	256.68
717.94	256.42
718.28	256.03
718.61	255.75
718.94	255.45
719.27	255.19
719.61	254.95
719.94	254.64
720.27	254.30
720.60	254.04
720.94	253.77
721.27	253.53
721.60	253.30
721.93	253.03
722.27	252.81
722.60	252.57
722.93	252.30
723.26	252.08
723.59	251.82
723.93	251.62
724.26	251.40
724.59	251.16
724.92	250.95
725.25	250.77
725.59	250.56
725.92	250.37
726.25	250.15
726.58	249.92
726.91	249.69
727.24	249.50
727.57	249.29
727.91	249.05
728.24	248.86
728.57	248.64
728.90	248.45
729.23	248.19
729.56	248.07
729.89	247.87
730.22	247.65
730.55	247.45
730.89	247.24
731.22	247.04
731.55	246.84
731.88	246.65
732.21	246.44
732.54	246.24
732.87	246.07
733.20	245.91
733.53	245.75
733.86	245.59
734.19	245.39
734.52	245.24
734.85	245.21
735.18	245.01
735.51	244.90
735.84	244.77
736.17	244.66
736.50	244.41
736.83	244.46
737.16	244.32
737.49	244.16
737.82	243.99
738.15	243.86
738.48	243.70
738.81	243.53
739.14	243.36
739.47	243.20
739.80	243.02
740.13	242.88
740.46	242.69
740.79	242.52
741.12	242.36
741.45	242.19
741.78	241.94
742.11	241.84
742.44	241.66
742.77	241.51
743.10	241.35
743.43	241.19
743.75	240.85
744.08	240.97
744.41	240.82
744.74	240.68
745.07	240.49
745.40	240.40
745.73	240.34
746.06	240.23
746.39	240.12
746.71	239.98
747.04	239.81
747.37	239.68
747.70	239.57
748.03	239.46
748.36	239.37
748.68	239.25
749.01	239.09
749.34	238.98
749.67	238.87
750.00	238.77
750.33	238.79
750.65	238.69
750.98	238.34
751.31	238.23
751.64	238.13
751.97	238.13
752.29	238.01
752.62	237.82
752.95	237.70
753.28	237.56
753.60	237.44
753.93	237.41
754.26	237.33
754.59	237.18
754.91	237.06
755.24	236.93
755.57	236.83
755.90	236.72
756.22	236.59
756.55	236.46
756.88	236.30
757.20	236.09
757.53	235.94
757.86	235.83
758.19	235.76
758.51	235.67
758.84	235.48
759.17	235.37
759.49	235.29
759.82	235.29
760.15	235.23
760.47	235.13
760.80	234.98
761.13	234.92
761.45	234.83
761.78	234.75
762.11	234.68
762.43	234.58
762.76	234.49
763.08	234.42
763.41	234.35
763.74	234.31
764.06	234.22
764.39	234.15
764.71	234.06
765.04	233.96
765.37	233.85
765.69	233.79
766.02	233.72
766.34	233.63
766.67	233.49
767.00	233.45
767.32	233.49
767.65	233.54
767.97	233.45
768.30	233.40
768.62	233.33
768.95	233.24
769.27	233.17
769.60	233.14
769.92	233.06
770.25	232.98
770.57	232.87
770.90	232.82
771.22	232.75
771.55	232.70
771.87	232.65
772.20	232.60
772.52	232.69
772.85	232.85
773.17	232.80
773.50	232.74
773.82	232.66
774.15	232.50
774.47	232.34
774.80	232.28
775.12	232.22
775.45	232.17
775.77	232.14
776.09	232.12
776.42	232.06
776.74	232.07
777.07	232.02
777.39	232.00
777.72	231.95
778.04	231.94
778.36	231.89
778.69	231.85
779.01	231.82
779.33	231.63
779.66	231.39
779.98	231.35
780.31	231.33
780.63	231.37
780.95	231.38
781.28	231.34
781.60	231.30
781.92	231.27
782.25	231.23
782.57	231.21
782.89	231.15
783.22	231.11
783.54	231.04
783.86	231.03
784.19	230.99
784.51	231.03
784.83	230.97
785.16	230.95
785.48	230.92
785.80	230.88
786.12	230.87
786.45	230.83
786.77	230.82
787.09	230.78
787.42	230.68
787.74	230.65
788.06	230.63
788.38	230.59
788.71	230.56
789.03	230.55
789.35	230.53
789.67	230.50
789.99	230.49
790.32	230.44
790.64	230.44
790.96	230.58
791.28	230.47
791.61	230.42
791.93	230.39
792.25	230.36
792.57	230.48
792.89	230.43
793.21	230.41
793.54	230.37
793.86	230.32
794.18	230.31
794.50	230.24
794.82	230.22
795.14	230.22
795.47	230.22
795.79	230.19
796.11	230.12
796.43	230.09
796.75	230.06
797.07	230.05
797.39	230.01
797.71	229.84
798.04	229.84
798.36	229.84
798.68	229.82
799.00	229.82
799.32	229.70
799.64	229.71
799.96	229.69
800.28	229.70
800.60	229.67
800.92	229.66
801.24	229.64
801.56	229.63
801.89	229.59
802.21	229.57
802.53	229.53
802.85	229.57
803.17	229.63
803.49	229.57
803.81	229.55
804.13	229.51
804.45	229.48
804.77	229.48
805.09	229.46
805.41	229.42
805.73	229.38
806.05	229.31
806.37	229.28
806.69	229.24
807.01	229.21
807.33	229.21
807.65	229.13
807.97	229.20
808.28	229.16
808.60	229.15
808.92	229.11
809.24	229.21
809.56	229.15
809.88	229.07
810.20	229.08
810.52	229.08
810.84	229.04
811.16	229.01
811.48	228.98
811.80	229.03
812.12	229.02
812.43	229.04
812.75	229.04
813.07	229.02
813.39	229.02
813.71	228.99
814.03	228.97
814.35	228.98
814.67	228.90
814.98	228.88
815.30	228.87
815.62	228.83
815.94	228.69
816.26	228.72
816.58	228.67
816.89	228.68
817.21	228.63
817.53	228.64
817.85	228.65
818.17	228.63
818.48	228.56
818.80	228.58
819.12	228.54
819.44	228.49
819.76	228.45
820.07	228.44
820.39	228.43
820.71	228.43
821.03	228.42
821.34	228.40
821.66	228.42
821.98	228.43
822.30	228.43
822.61	228.54
822.93	228.50
823.25	228.49
823.57	228.45
823.88	228.47
824.20	228.45
824.52	228.47
824.83	228.46
825.15	228.43
825.47	228.41
825.79	228.42
826.10	228.40
826.42	228.40
826.74	228.41
827.05	228.40
827.37	228.40
827.69	228.38
828.00	228.38
828.32	228.37
828.64	228.34
828.95	228.43
829.27	228.35
829.58	228.35
829.90	228.38
830.22	228.40
830.53	228.36
830.85	228.34
831.17	228.27
831.48	228.26
831.80	228.27
832.11	228.25
832.43	228.23
832.75	228.22
833.06	228.33
833.38	228.27
833.69	228.25
834.01	228.25
834.32	228.24
834.64	228.22
834.96	228.20
835.27	228.18
835.59	228.11
835.90	228.09
836.22	228.07
836.53	228.03
836.85	227.98
837.16	228.16
837.48	228.17
837.79	228.22
838.11	228.23
838.42	228.22
838.74	228.23
839.05	228.21
839.37	228.20
839.68	228.08
840.00	228.07
840.31	228.09
840.63	228.06
840.94	228.05
841.26	228.03
841.57	228.02
841.88	228.03
842.20	228.01
842.51	227.97
842.83	227.96
843.14	228.12
843.46	228.12
843.77	228.01
844.08	227.99
844.40	227.94
844.71	227.90
845.03	227.87
845.34	227.85
845.65	227.84
845.97	227.83
846.28	227.84
846.60	227.86
846.91	227.84
847.22	227.83
847.54	227.85
847.85	227.86
848.16	227.85
848.48	227.81
848.79	227.87
849.10	227.89
849.42	227.90
849.73	227.72
850.04	227.72
850.36	227.65
850.67	227.68
850.98	227.68
851.30	227.70
851.61	227.70
851.92	227.70
852.23	227.74
852.55	227.75
852.86	227.75
853.17	227.76
853.49	227.79
853.80	227.82
854.11	227.82
854.42	227.84
854.74	227.82
855.05	227.83
855.36	227.73
855.67	227.72
855.99	227.71
856.30	227.93
856.61	227.91
856.92	227.92
857.23	227.92
857.55	227.89
857.86	227.87
858.17	227.90
858.48	227.87
858.79	227.83
859.11	227.84
859.42	227.82
859.73	227.79
860.04	227.76
860.35	227.72
860.66	227.66
860.98	227.64
861.29	227.67
861.60	227.65
861.91	227.70
862.22	227.68
862.53	227.65
862.84	227.45
863.16	227.49
863.47	227.46
863.78	227.43
864.09	227.44
864.40	227.45
864.71	227.45
865.02	227.48
865.33	227.46
865.64	227.43
865.95	227.44
866.27	227.54
866.58	227.53
866.89	227.54
867.20	227.55
867.51	227.52
867.82	227.52
868.13	227.57
868.44	227.53
868.75	227.55
869.06	227.56
869.37	227.58
869.68	227.53
869.99	227.56
870.30	227.57
870.61	227.60
870.92	227.57
871.23	227.56
871.54	227.57
871.85	227.62
872.16	227.65
872.47	227.62
872.78	227.53
873.09	227.55
873.40	227.53
873.71	227.54
874.02	227.55
874.33	227.53
874.64	227.49
874.95	227.52
875.26	227.50
875.56	227.50
875.87	227.49
876.18	227.49
876.49	227.66
876.80	227.65
877.11	227.61
877.42	227.62
877.73	227.63
878.04	227.59
878.35	227.58
878.66	227.57
878.96	227.57
879.27	227.57
879.58	227.55
879.89	227.54
880.20	227.59
880.51	227.58
880.82	227.59
881.12	227.59
881.43	227.55
881.74	227.53
882.05	227.51
882.36	227.53
882.67	227.54
882.97	227.35
883.28	227.33
883.59	227.32
883.90	227.33
884.21	227.36
884.51	227.35
884.82	227.33
885.13	227.34
885.44	227.33
885.74	227.34
886.05	227.33
886.36	227.34
886.67	227.27
886.98	227.36
887.28	227.37
887.59	227.37
887.90	227.39
888.20	227.39
888.51	227.43
888.82	227.40
889.13	227.41
889.43	227.57
889.74	227.58
890.05	227.57
890.35	227.56
890.66	227.53
890.97	227.51
891.28	227.49
891.58	227.49
891.89	227.48
892.20	227.46
892.50	227.43
892.81	227.42
893.12	227.42
893.42	227.34
893.73	227.34
894.04	227.33
894.34	227.34
894.65	227.34
894.95	227.32
895.26	227.32
895.57	227.40
895.87	227.23
896.18	227.24
896.48	227.26
896.79	227.26
897.10	227.28
897.40	227.30
897.71	227.32
898.01	227.30
898.32	227.32
898.63	227.34
898.93	227.35
899.24	227.35
899.54	227.35
899.85	227.34
900.15	227.33
900.46	227.33
900.76	227.34
901.07	227.33
901.38	227.32
901.68	227.34
901.99	227.24
902.29	227.25
902.60	227.24
902.90	227.22
903.21	227.22
903.51	227.21
903.82	227.24
904.12	227.23
904.43	227.25
904.73	227.23
905.03	227.23
905.34	227.41
905.64	227.40
905.95	227.40
906.25	227.40
906.56	227.39
906.86	227.39
907.17	227.38
907.47	227.39
907.77	227.37
908.08	227.34
908.38	227.34
908.69	227.35
908.99	227.37
909.30	227.39
909.60	227.39
909.90	227.39
910.21	227.34
910.51	227.31
910.81	227.31
911.12	227.32
911.42	227.32
911.73	227.13
912.03	227.14
912.33	227.17
912.64	227.16
912.94	227.14
913.24	227.11
913.55	227.09
913.85	227.07
914.15	227.11
914.46	227.14
914.76	227.13
915.06	227.12
915.37	227.09
915.67	227.06
915.97	227.07
916.27	227.03
916.58	227.04
916.88	227.05
917.18	227.04
917.49	227.16
917.79	227.16
918.09	227.20
918.39	227.23
918.70	227.21
919.00	227.22
919.30	227.32
919.60	227.31
919.91	227.29
920.21	227.31
920.51	227.27
920.81	227.26
921.12	227.30
921.42	227.29
921.72	227.31
922.02	227.33
922.32	227.34
922.63	227.36
922.93	227.46
923.23	227.46
923.53	227.45
923.83	227.33
924.13	227.35
924.44	227.35
924.74	227.39
925.04	227.43
925.34	227.42
925.64	227.35
925.94	227.34
926.24	227.44
926.55	227.42
926.85	227.44
927.15	227.43
927.45	227.42
927.75	227.42
928.05	227.42
928.35	227.40
928.65	227.43
928.95	227.44
929.26	227.36
929.56	227.39
929.86	227.41
930.16	227.39
930.46	227.37
930.76	227.36
931.06	227.26
931.36	227.21
931.66	227.26
931.96	227.28
932.26	227.29
932.56	227.23
932.86	227.24
933.16	227.24
933.46	227.22
933.76	227.19
934.06	227.23
934.36	227.27
934.66	227.27
934.96	227.23
935.26	227.24
935.56	227.27
935.86	227.21
936.16	227.19
936.46	227.17
936.76	227.16
937.06	227.12
937.36	227.15
937.66	227.15
937.96	227.12
938.26	227.09
938.56	227.08
938.86	227.08
939.16	227.12
939.46	227.13
939.76	227.15
940.06	227.16
940.35	227.11
940.65	227.04
940.95	227.04
941.25	227.01
941.55	226.98
941.85	226.96
942.15	227.00
942.45	227.04
942.75	227.04
943.04	227.05
943.34	227.09
943.64	227.07
943.94	227.05
944.24	227.05
944.54	227.06
944.84	227.06
945.13	227.03
945.43	226.99
945.73	226.98
946.03	226.97
946.33	226.94
946.62	226.94
946.92	226.94
947.22	226.95
947.52	226.96
947.82	226.98
948.11	226.97
948.41	226.93
948.71	226.88
949.01	226.90
949.31	226.89
949.60	226.87
949.90	226.89
950.20	226.89
950.50	226.88
950.79	226.85
951.09	226.88
951.39	226.87
951.69	226.87
951.98	226.90
952.28	226.91
952.58	226.91
952.87	226.91
953.17	226.93
953.47	226.90
953.76	226.91
954.06	226.87
954.36	226.85
954.66	226.85
954.95	226.90
955.25	226.92
955.55	226.92
955.84	226.90
956.14	226.92
956.44	226.93
956.73	226.90
957.03	226.93
957.32	226.93
957.62	226.93
957.92	226.97
958.21	226.95
958.51	227.15
958.81	227.17
959.10	227.19
959.40	227.24
959.69	227.25
959.99	227.28
960.29	227.29
960.58	227.29
960.88	227.36
961.17	227.33
961.47	227.34
961.76	227.34
962.06	227.38
962.36	227.37
962.65	227.37
962.95	227.40
963.24	227.38
963.54	227.37
963.83	227.38
964.13	227.37
964.42	227.35
964.72	227.20
965.01	227.20
965.31	227.19
965.60	227.14
965.90	227.25
966.19	227.21
966.49	227.23
966.78	227.22
967.08	227.21
967.37	227.21
967.67	227.18
967.96	227.22
968.26	227.21
968.55	227.23
968.85	227.23
969.14	227.22
969.43	227.21
969.73	227.21
970.02	227.20
970.32	227.19
970.61	227.17
970.91	227.12
971.20	227.09
971.49	227.08
971.79	227.10
972.08	226.98
972.38	227.00
972.67	226.99
972.96	227.02
973.26	226.98
973.55	227.04
973.85	227.02
974.14	227.01
974.43	227.02
974.73	226.98
975.02	226.97
975.31	226.98
975.61	226.99
975.90	226.97
976.19	226.95
976.49	226.96
976.78	226.98
977.07	226.97
977.37	227.00
977.66	227.02
977.95	227.00
978.24	227.01
978.54	227.04
978.83	227.03
979.12	227.01
979.42	227.01
979.71	226.96
980.00	226.96
980.29	226.96
980.59	226.92
980.88	226.96
981.17	226.95
981.46	226.95
981.76	226.94
982.05	226.99
982.34	227.01
982.63	227.00
982.93	227.00
983.22	227.04
983.51	227.02
983.80	227.04
984.09	227.06
984.39	227.04
984.68	227.00
984.97	227.01
985.26	226.99
985.55	227.00
985.85	226.97
986.14	226.99
986.43	227.01
986.72	227.01
987.01	226.95
987.30	226.96
987.59	226.95
987.89	226.96
988.18	226.89
988.47	226.87
988.76	226.86
989.05	226.83
989.34	226.81
989.63	226.86
989.92	226.83
990.22	226.79
990.51	226.80
990.80	226.79
991.09	226.80
991.38	226.83
991.67	226.81
991.96	226.80
992.25	226.81
992.54	226.78
992.83	226.78
993.12	226.78
993.41	226.80
993.70	226.86
993.99	226.90
994.28	226.95
994.58	226.98
994.87	226.95
995.16	226.96
995.45	226.94
995.74	226.88
996.03	226.91
996.32	226.94
996.61	226.98
996.90	226.99
997.19	226.98
997.48	226.98
997.77	226.97
998.06	226.99
998.34	226.97
998.63	226.97
998.92	226.98
999.21	227.01
999.50	227.01
999.79	226.96
1000.08	226.94
1000.37	226.94
1000.66	226.92
1000.95	226.97
1001.24	226.97
1001.53	227.01
1001.82	227.00
1002.11	226.95
1002.40	226.97
1002.68	227.01
1002.97	227.13
1003.26	227.12
1003.55	227.09
1003.84	227.10
1004.13	227.15
1004.42	227.15
1004.71	227.16
1004.99	227.15
1005.28	227.18
1005.57	227.17
1005.86	227.15
1006.15	227.14
1006.44	227.11
1006.72	227.13
1007.01	227.10
1007.30	227.11
1007.59	227.09
1007.88	227.10
1008.17	227.12
1008.45	227.08
1008.74	227.00
1009.03	226.92
1009.32	226.92
1009.60	226.93
1009.89	226.91
1010.18	226.83
1010.47	226.82
1010.76	226.81
1011.04	226.81
1011.33	226.81
1011.62	226.83
1011.91	226.85
1012.19	226.86
1012.48	226.87
1012.77	226.87
1013.05	226.95
1013.34	226.94
1013.63	226.93
1013.92	226.94
1014.20	226.93
1014.49	226.94
1014.78	226.95
1015.06	226.89
1015.35	226.89
1015.64	226.91
1015.92	226.94
1016.21	226.96
1016.50	226.97
1016.78	226.98
1017.07	227.00
1017.36	226.97
1017.64	226.94
1017.93	226.96
1018.22	226.94
1018.50	226.93
1018.79	226.93
1019.08	226.85
1019.36	226.86
1019.65	226.85
1019.93	226.90
1020.22	226.92
1020.51	227.01
1020.79	227.00
1021.08	226.68
1021.36	226.58
1021.65	226.94
1021.94	226.86
1022.22	227.05
1022.51	226.57
1022.79	227.79
1023.08	227.11
1023.36	228.99
1023.65	226.49
>>>>>End Processed Spectral Data<<<<<
