SpectraSuite Data File
++++++++++++++++++++++++++++++++++++
Date: Tue Oct 06 20:40:55 EDT 2015
User: lab3
Dark Spectrum Present: No
Reference Spectrum Present: No
Number of Sampled Component Spectra: 1
Spectrometers: USB2E7196
Integration Time (usec): 66000 (USB2E7196)
Spectra Averaged: 5000 (USB2E7196)
Boxcar Smoothing: 10 (USB2E7196)
Correct for Electrical Dark: No (USB2E7196)
Strobe/Lamp Enabled: No (USB2E7196)
Correct for Detector Non-linearity: No (USB2E7196)
Correct for Stray Light: No (USB2E7196)
Number of Pixels in Processed Spectrum: 2048
>>>>>Begin Processed Spectral Data<<<<<
339.09	0.00
339.48	214.24
339.86	215.71
340.24	217.11
340.63	218.51
341.01	222.55
341.39	221.25
341.78	222.70
342.16	223.98
342.54	224.21
342.93	212.76
343.31	223.51
343.69	224.04
344.07	224.51
344.46	224.95
344.84	225.36
345.22	225.56
345.60	225.84
345.99	226.04
346.37	226.18
346.75	226.31
347.13	226.40
347.52	226.49
347.90	226.63
348.28	226.68
348.66	226.77
349.05	226.76
349.43	226.84
349.81	226.92
350.19	226.98
350.57	227.07
350.96	227.17
351.34	227.28
351.72	227.39
352.10	227.51
352.48	227.58
352.87	227.63
353.25	227.70
353.63	227.76
354.01	227.82
354.39	227.90
354.77	227.99
355.15	228.11
355.54	228.15
355.92	228.15
356.30	228.23
356.68	228.41
357.06	228.49
357.44	228.53
357.82	228.58
358.20	228.80
358.58	228.86
358.97	228.92
359.35	229.02
359.73	229.12
360.11	229.17
360.49	229.23
360.87	229.27
361.25	229.35
361.63	229.45
362.01	229.50
362.39	229.53
362.77	229.57
363.15	229.59
363.53	229.62
363.91	229.66
364.29	229.69
364.67	229.54
365.05	229.56
365.43	229.60
365.81	229.64
366.19	229.59
366.57	229.67
366.95	229.66
367.33	229.62
367.71	229.61
368.09	229.64
368.47	229.63
368.85	229.63
369.23	229.64
369.61	229.57
369.99	229.61
370.37	229.62
370.75	229.74
371.13	229.70
371.51	229.66
371.89	229.64
372.27	229.62
372.65	229.61
373.03	229.57
373.41	229.53
373.78	229.48
374.16	229.35
374.54	229.25
374.92	229.20
375.30	229.17
375.68	229.09
376.06	229.05
376.44	229.00
376.82	228.97
377.19	228.92
377.57	228.87
377.95	228.76
378.33	228.70
378.71	228.49
379.09	228.45
379.47	228.43
379.84	228.37
380.22	228.30
380.60	228.23
380.98	228.18
381.36	228.13
381.73	228.07
382.11	228.06
382.49	228.03
382.87	227.96
383.25	227.92
383.62	228.10
384.00	228.03
384.38	227.99
384.76	227.98
385.13	228.00
385.51	227.96
385.89	227.91
386.27	227.88
386.64	227.89
387.02	227.83
387.40	227.79
387.78	227.77
388.15	227.75
388.53	227.72
388.91	227.69
389.29	227.66
389.66	227.67
390.04	227.62
390.42	227.64
390.79	227.64
391.17	227.62
391.55	227.41
391.92	227.40
392.30	227.42
392.68	227.37
393.05	227.35
393.43	227.36
393.81	227.39
394.18	227.37
394.56	227.38
394.94	227.44
395.31	227.44
395.69	227.51
396.06	227.57
396.44	227.62
396.82	227.64
397.19	227.77
397.57	227.79
397.95	227.86
398.32	227.86
398.70	227.94
399.07	228.03
399.45	228.10
399.82	228.17
400.20	228.22
400.58	228.31
400.95	228.33
401.33	228.46
401.70	228.68
402.08	228.83
402.45	228.96
402.83	229.13
403.20	229.30
403.58	229.43
403.95	229.63
404.33	229.85
404.71	230.07
405.08	230.37
405.46	230.62
405.83	230.90
406.21	231.19
406.58	231.51
406.96	231.83
407.33	232.21
407.70	232.63
408.08	233.20
408.45	233.70
408.83	234.24
409.20	234.73
409.58	235.18
409.95	235.80
410.33	236.47
410.70	237.11
411.08	237.86
411.45	238.66
411.82	239.47
412.20	240.39
412.57	241.48
412.95	242.35
413.32	243.48
413.69	244.64
414.07	245.89
414.44	247.24
414.82	248.62
415.19	250.23
415.56	251.88
415.94	253.59
416.31	255.51
416.68	257.44
417.06	259.67
417.43	261.75
417.81	264.15
418.18	266.60
418.55	269.28
418.93	272.06
419.30	274.97
419.67	278.05
420.04	281.22
420.42	284.53
420.79	288.36
421.16	292.22
421.54	296.12
421.91	300.21
422.28	304.46
422.66	309.03
423.03	313.38
423.40	317.93
423.77	322.80
424.15	327.80
424.52	332.96
424.89	338.56
425.26	344.11
425.64	349.26
426.01	355.04
426.38	360.94
426.75	367.02
427.13	373.23
427.50	379.73
427.87	386.48
428.24	393.28
428.61	399.78
428.99	406.80
429.36	414.50
429.73	421.86
430.10	429.18
430.47	436.66
430.85	444.41
431.22	452.66
431.59	461.13
431.96	469.38
432.33	478.58
432.70	487.31
433.08	497.65
433.45	507.40
433.82	517.03
434.19	527.82
434.56	538.46
434.93	548.76
435.30	558.98
435.68	570.57
436.05	581.89
436.42	593.23
436.79	603.60
437.16	614.88
437.53	626.94
437.90	638.99
438.27	650.84
438.64	663.65
439.01	675.28
439.38	685.96
439.75	696.29
440.13	708.05
440.50	719.24
440.87	728.20
441.24	738.05
441.61	748.86
441.98	756.87
442.35	766.39
442.72	776.08
443.09	785.33
443.46	791.39
443.83	796.03
444.20	799.91
444.57	805.46
444.94	808.82
445.31	812.29
445.68	815.33
446.05	817.65
446.42	817.52
446.79	817.14
447.16	816.89
447.53	816.71
447.90	813.44
448.27	810.35
448.64	805.32
449.01	801.94
449.37	794.65
449.74	788.03
450.11	779.42
450.48	769.94
450.85	760.40
451.22	752.23
451.59	744.17
451.96	736.89
452.33	726.27
452.70	716.82
453.07	705.31
453.43	693.82
453.80	682.60
454.17	671.85
454.54	661.93
454.91	650.69
455.28	640.07
455.65	630.05
456.02	619.41
456.38	610.85
456.75	599.88
457.12	591.04
457.49	582.11
457.86	573.65
458.23	566.18
458.59	557.97
458.96	549.54
459.33	542.13
459.70	534.58
460.07	528.81
460.43	522.02
460.80	515.68
461.17	510.17
461.54	504.20
461.91	498.59
462.27	492.90
462.64	488.24
463.01	482.92
463.38	477.55
463.74	472.71
464.11	468.41
464.48	464.51
464.85	460.32
465.21	457.12
465.58	453.55
465.95	449.51
466.32	446.30
466.68	443.16
467.05	439.98
467.42	436.89
467.78	433.59
468.15	430.54
468.52	428.30
468.88	425.32
469.25	422.62
469.62	420.48
469.98	418.15
470.35	416.08
470.72	414.19
471.08	412.28
471.45	410.69
471.82	408.91
472.18	407.05
472.55	405.84
472.92	404.33
473.28	403.15
473.65	401.89
474.02	400.67
474.38	399.64
474.75	399.02
475.11	398.19
475.48	397.79
475.85	397.35
476.21	397.08
476.58	396.90
476.94	397.05
477.31	397.07
477.67	397.13
478.04	397.42
478.41	397.82
478.77	398.41
479.14	398.77
479.50	399.52
479.87	400.50
480.23	401.44
480.60	402.35
480.96	403.26
481.33	404.66
481.69	406.03
482.06	407.38
482.42	408.62
482.79	410.16
483.15	411.98
483.52	414.03
483.88	415.98
484.25	418.05
484.61	420.23
484.98	422.59
485.34	425.24
485.71	428.00
486.07	430.97
486.44	433.88
486.80	437.18
487.17	440.54
487.53	444.20
487.90	448.03
488.26	452.20
488.62	456.61
488.99	461.00
489.35	465.61
489.72	470.56
490.08	475.79
490.44	481.12
490.81	486.67
491.17	492.40
491.54	498.55
491.90	504.82
492.26	511.53
492.63	518.56
492.99	525.91
493.36	533.40
493.72	541.28
494.08	549.36
494.45	557.83
494.81	566.71
495.17	575.81
495.54	585.43
495.90	595.47
496.26	605.71
496.63	616.25
496.99	627.18
497.35	638.62
497.72	650.33
498.08	662.39
498.44	674.78
498.80	687.83
499.17	701.19
499.53	714.99
499.89	729.23
500.26	743.69
500.62	758.50
500.98	774.17
501.34	789.86
501.71	806.35
502.07	823.15
502.43	840.43
502.79	857.91
503.16	875.89
503.52	894.09
503.88	912.72
504.24	931.80
504.60	951.13
504.97	971.11
505.33	991.58
505.69	1013.09
506.05	1034.85
506.41	1056.57
506.78	1078.42
507.14	1100.85
507.50	1123.77
507.86	1147.09
508.22	1170.64
508.59	1194.11
508.95	1218.62
509.31	1243.64
509.67	1269.31
510.03	1294.89
510.39	1320.43
510.75	1346.06
511.12	1372.09
511.48	1398.37
511.84	1424.63
512.20	1451.26
512.56	1478.99
512.92	1506.55
513.28	1533.52
513.64	1560.91
514.00	1588.68
514.37	1616.71
514.73	1644.84
515.09	1672.28
515.45	1700.03
515.81	1728.05
516.17	1755.85
516.53	1782.99
516.89	1809.90
517.25	1837.16
517.61	1864.20
517.97	1891.97
518.33	1919.17
518.69	1946.28
519.05	1973.80
519.41	2001.50
519.77	2029.27
520.13	2055.47
520.49	2081.73
520.85	2108.40
521.21	2134.47
521.57	2160.88
521.93	2186.26
522.29	2212.30
522.65	2238.23
523.01	2263.85
523.37	2288.73
523.73	2314.34
524.09	2339.71
524.45	2364.85
524.81	2389.32
525.17	2413.76
525.53	2437.27
525.89	2461.25
526.25	2484.89
526.61	2506.82
526.97	2528.84
527.33	2550.69
527.68	2572.39
528.04	2593.74
528.40	2613.88
528.76	2634.15
529.12	2653.92
529.48	2674.39
529.84	2692.08
530.20	2710.14
530.56	2727.46
530.91	2744.97
531.27	2761.82
531.63	2777.77
531.99	2793.44
532.35	2808.85
532.71	2823.77
533.07	2839.13
533.42	2852.50
533.78	2866.05
534.14	2880.74
534.50	2894.26
534.86	2908.27
535.21	2920.06
535.57	2931.68
535.93	2943.06
536.29	2952.62
536.65	2962.07
537.00	2970.11
537.36	2979.50
537.72	2987.96
538.08	2995.96
538.44	3002.67
538.79	3009.15
539.15	3014.30
539.51	3018.57
539.87	3021.62
540.22	3023.07
540.58	3024.78
540.94	3027.27
541.29	3028.64
541.65	3028.60
542.01	3028.13
542.37	3025.96
542.72	3025.50
543.08	3023.23
543.44	3021.16
543.79	3018.89
544.15	3015.74
544.51	3012.65
544.87	3008.56
545.22	3003.44
545.58	2998.01
545.94	2992.85
546.29	2986.16
546.65	2979.63
547.01	2973.38
547.36	2967.67
547.72	2961.99
548.07	2954.59
548.43	2945.99
548.79	2937.12
549.14	2928.46
549.50	2919.92
549.86	2910.43
550.21	2899.20
550.57	2889.27
550.92	2877.48
551.28	2865.96
551.64	2854.85
551.99	2843.39
552.35	2831.47
552.70	2819.42
553.06	2807.86
553.41	2795.86
553.77	2783.61
554.13	2771.35
554.48	2757.82
554.84	2743.26
555.19	2729.27
555.55	2715.15
555.90	2701.58
556.26	2688.21
556.61	2673.73
556.97	2658.16
557.32	2643.09
557.68	2628.35
558.03	2613.20
558.39	2599.09
558.74	2585.64
559.10	2570.15
559.45	2554.71
559.81	2539.99
560.16	2524.91
560.52	2509.51
560.87	2494.34
561.23	2478.71
561.58	2463.72
561.94	2448.29
562.29	2432.37
562.64	2416.58
563.00	2400.85
563.35	2385.28
563.71	2369.31
564.06	2353.47
564.42	2338.16
564.77	2322.93
565.12	2307.33
565.48	2291.44
565.83	2275.70
566.19	2259.89
566.54	2244.35
566.89	2228.38
567.25	2212.35
567.60	2197.09
567.96	2181.14
568.31	2163.76
568.66	2147.35
569.02	2131.46
569.37	2116.16
569.72	2101.47
570.08	2086.29
570.43	2070.49
570.78	2054.48
571.14	2038.36
571.49	2022.21
571.84	2006.36
572.20	1989.20
572.55	1972.88
572.90	1956.68
573.26	1940.53
573.61	1923.70
573.96	1907.38
574.31	1890.92
574.67	1874.12
575.02	1857.09
575.37	1840.05
575.72	1823.88
576.08	1807.37
576.43	1790.08
576.78	1773.05
577.13	1756.22
577.49	1739.61
577.84	1723.52
578.19	1706.94
578.54	1690.37
578.90	1673.66
579.25	1656.81
579.60	1641.31
579.95	1625.44
580.30	1609.49
580.66	1593.25
581.01	1577.11
581.36	1561.07
581.71	1545.91
582.06	1530.75
582.42	1515.37
582.77	1500.48
583.12	1485.83
583.47	1471.20
583.82	1456.74
584.17	1441.69
584.53	1426.72
584.88	1412.12
585.23	1397.34
585.58	1382.99
585.93	1368.49
586.28	1355.11
586.63	1341.54
586.98	1327.43
587.34	1313.78
587.69	1299.94
588.04	1286.45
588.39	1273.27
588.74	1259.68
589.09	1246.19
589.44	1232.41
589.79	1219.25
590.14	1206.13
590.49	1193.04
590.84	1180.21
591.19	1167.77
591.54	1155.47
591.89	1142.72
592.25	1130.31
592.60	1117.79
592.95	1105.41
593.30	1093.48
593.65	1081.20
594.00	1069.21
594.35	1058.20
594.70	1046.44
595.05	1035.33
595.40	1024.03
595.75	1012.56
596.10	1001.75
596.45	990.94
596.80	980.55
597.15	970.12
597.50	959.67
597.85	949.54
598.19	939.39
598.54	929.22
598.89	919.60
599.24	910.41
599.59	901.00
599.94	892.27
600.29	883.54
600.64	874.59
600.99	865.53
601.34	856.82
601.69	847.57
602.04	839.30
602.39	830.89
602.74	822.69
603.08	814.63
603.43	806.57
603.78	798.47
604.13	790.45
604.48	782.46
604.83	774.73
605.18	767.05
605.53	759.57
605.87	752.03
606.22	744.61
606.57	737.12
606.92	729.56
607.27	722.01
607.62	714.69
607.96	707.64
608.31	701.11
608.66	694.46
609.01	688.11
609.36	681.69
609.70	675.24
610.05	668.79
610.40	662.55
610.75	656.27
611.10	650.24
611.44	644.21
611.79	638.33
612.14	632.34
612.49	626.44
612.83	620.85
613.18	615.33
613.53	609.81
613.88	604.42
614.22	599.42
614.57	594.34
614.92	589.37
615.27	584.54
615.61	579.56
615.96	574.63
616.31	569.71
616.65	564.95
617.00	560.32
617.35	555.77
617.70	551.23
618.04	546.81
618.39	542.51
618.74	538.47
619.08	534.38
619.43	530.44
619.78	526.44
620.12	522.41
620.47	518.58
620.82	514.88
621.16	511.20
621.51	507.57
621.85	503.94
622.20	500.39
622.55	496.81
622.89	493.30
623.24	489.98
623.59	486.72
623.93	483.54
624.28	480.50
624.62	477.64
624.97	474.81
625.32	471.90
625.66	468.95
626.01	465.95
626.35	463.15
626.70	460.26
627.04	457.62
627.39	454.93
627.73	452.32
628.08	449.75
628.43	447.22
628.77	444.61
629.12	442.13
629.46	439.76
629.81	437.53
630.15	435.22
630.50	432.93
630.84	430.69
631.19	428.50
631.53	426.40
631.88	424.13
632.22	421.96
632.57	420.10
632.91	418.18
633.26	416.34
633.60	414.51
633.95	412.79
634.29	410.92
634.64	409.13
634.98	407.21
635.32	405.49
635.67	403.93
636.01	402.36
636.36	400.84
636.70	399.39
637.05	397.79
637.39	396.35
637.73	394.90
638.08	393.54
638.42	392.21
638.77	390.74
639.11	389.24
639.45	387.80
639.80	386.30
640.14	384.90
640.49	383.50
640.83	382.11
641.17	380.76
641.52	379.45
641.86	378.17
642.20	377.04
642.55	375.73
642.89	374.43
643.23	373.21
643.58	372.11
643.92	370.86
644.26	369.71
644.61	368.60
644.95	367.44
645.29	366.22
645.64	364.99
645.98	363.89
646.32	362.90
646.66	361.84
647.01	360.83
647.35	359.90
647.69	358.92
648.04	358.03
648.38	357.07
648.72	356.15
649.06	355.23
649.41	354.29
649.75	353.40
650.09	352.55
650.43	351.67
650.78	350.76
651.12	349.90
651.46	349.05
651.80	348.22
652.14	347.44
652.49	346.72
652.83	345.95
653.17	345.14
653.51	344.35
653.85	343.68
654.20	342.96
654.54	342.14
654.88	341.37
655.22	340.65
655.56	339.92
655.90	339.21
656.25	338.52
656.59	337.84
656.93	337.21
657.27	336.62
657.61	335.95
657.95	335.35
658.29	334.73
658.64	334.12
658.98	333.45
659.32	332.80
659.66	332.18
660.00	331.62
660.34	331.05
660.68	330.42
661.02	329.75
661.36	329.12
661.70	328.54
662.05	327.97
662.39	327.41
662.73	326.93
663.07	326.49
663.41	326.01
663.75	325.47
664.09	324.94
664.43	324.29
664.77	323.75
665.11	323.15
665.45	322.60
665.79	322.10
666.13	321.56
666.47	321.01
666.81	320.43
667.15	319.81
667.49	319.33
667.83	318.91
668.17	318.44
668.51	318.01
668.85	317.60
669.19	317.24
669.53	316.70
669.87	316.15
670.21	315.58
670.55	315.06
670.89	314.65
671.23	314.20
671.57	313.79
671.91	313.44
672.25	313.10
672.58	312.76
672.92	312.32
673.26	311.99
673.60	311.63
673.94	311.26
674.28	310.93
674.62	310.56
674.96	310.12
675.30	309.75
675.64	309.31
675.97	308.84
676.31	308.36
676.65	307.94
676.99	307.61
677.33	307.18
677.67	306.78
678.01	306.30
678.34	305.89
678.68	305.50
679.02	305.05
679.36	304.61
679.70	304.15
680.04	303.76
680.37	303.33
680.71	302.94
681.05	302.59
681.39	302.16
681.73	301.70
682.06	301.28
682.40	300.88
682.74	300.53
683.08	300.24
683.42	299.86
683.75	299.52
684.09	299.06
684.43	298.67
684.77	298.27
685.10	297.89
685.44	297.49
685.78	297.08
686.12	296.68
686.45	296.26
686.79	295.81
687.13	295.41
687.46	294.96
687.80	294.55
688.14	294.07
688.48	293.65
688.81	293.23
689.15	292.87
689.49	292.42
689.82	291.99
690.16	291.43
690.50	290.98
690.83	290.53
691.17	290.08
691.51	289.64
691.84	289.25
692.18	288.80
692.52	288.33
692.85	287.89
693.19	287.51
693.52	287.08
693.86	286.65
694.20	286.21
694.53	285.79
694.87	285.31
695.21	284.86
695.54	284.42
695.88	283.96
696.21	283.47
696.55	283.02
696.88	282.57
697.22	282.15
697.56	281.74
697.89	281.26
698.23	280.85
698.56	280.39
698.90	279.98
699.23	279.52
699.57	279.12
699.90	278.69
700.24	278.23
700.58	277.82
700.91	277.46
701.25	277.22
701.58	276.89
701.92	276.54
702.25	276.16
702.59	275.75
702.92	275.35
703.26	274.94
703.59	274.52
703.93	274.26
704.26	273.87
704.60	273.45
704.93	273.06
705.26	272.64
705.60	272.29
705.93	271.84
706.27	271.52
706.60	271.17
706.94	270.84
707.27	270.42
707.61	270.03
707.94	269.59
708.27	269.03
708.61	268.57
708.94	268.14
709.28	267.74
709.61	267.36
709.94	267.01
710.28	266.68
710.61	266.34
710.95	265.82
711.28	265.58
711.61	265.21
711.95	264.89
712.28	264.52
712.61	264.14
712.95	263.89
713.28	263.60
713.61	263.21
713.95	262.81
714.28	262.49
714.61	262.13
714.95	261.79
715.28	261.45
715.61	261.14
715.95	260.84
716.28	260.51
716.61	260.23
716.95	259.89
717.28	259.57
717.61	259.25
717.94	258.96
718.28	258.53
718.61	258.23
718.94	257.90
719.27	257.61
719.61	257.34
719.94	257.00
720.27	256.62
720.60	256.35
720.94	256.06
721.27	255.79
721.60	255.54
721.93	255.26
722.27	255.03
722.60	254.76
722.93	254.46
723.26	254.21
723.59	253.92
723.93	253.68
724.26	253.43
724.59	253.17
724.92	252.93
725.25	252.74
725.59	252.49
725.92	252.27
726.25	252.03
726.58	251.78
726.91	251.52
727.24	251.31
727.57	251.06
727.91	250.79
728.24	250.58
728.57	250.34
728.90	250.13
729.23	249.84
729.56	249.70
729.89	249.49
730.22	249.26
730.55	249.04
730.89	248.82
731.22	248.60
731.55	248.38
731.88	248.17
732.21	247.93
732.54	247.72
732.87	247.51
733.20	247.33
733.53	247.13
733.86	246.96
734.19	246.75
734.52	246.59
734.85	246.54
735.18	246.32
735.51	246.20
735.84	246.03
736.17	245.91
736.50	245.62
736.83	245.65
737.16	245.48
737.49	245.31
737.82	245.12
738.15	244.96
738.48	244.78
738.81	244.59
739.14	244.40
739.47	244.22
739.80	244.04
740.13	243.87
740.46	243.67
740.79	243.47
741.12	243.30
741.45	243.10
741.78	242.83
742.11	242.71
742.44	242.48
742.77	242.33
743.10	242.13
743.43	241.97
743.75	241.62
744.08	241.73
744.41	241.55
744.74	241.39
745.07	241.21
745.40	241.10
745.73	241.03
746.06	240.89
746.39	240.77
746.71	240.62
747.04	240.47
747.37	240.33
747.70	240.21
748.03	240.08
748.36	239.98
748.68	239.84
749.01	239.65
749.34	239.53
749.67	239.40
750.00	239.29
750.33	239.30
750.65	239.19
750.98	238.80
751.31	238.69
751.64	238.58
751.97	238.55
752.29	238.40
752.62	238.20
752.95	238.07
753.28	237.92
753.60	237.78
753.93	237.70
754.26	237.60
754.59	237.43
754.91	237.30
755.24	237.15
755.57	237.05
755.90	236.93
756.22	236.79
756.55	236.65
756.88	236.50
757.20	236.27
757.53	236.11
757.86	235.99
758.19	235.90
758.51	235.78
758.84	235.58
759.17	235.47
759.49	235.38
759.82	235.36
760.15	235.29
760.47	235.19
760.80	235.03
761.13	234.96
761.45	234.86
761.78	234.77
762.11	234.69
762.43	234.57
762.76	234.47
763.08	234.40
763.41	234.33
763.74	234.26
764.06	234.17
764.39	234.09
764.71	233.99
765.04	233.89
765.37	233.80
765.69	233.72
766.02	233.64
766.34	233.54
766.67	233.39
767.00	233.34
767.32	233.36
767.65	233.41
767.97	233.31
768.30	233.25
768.62	233.18
768.95	233.09
769.27	233.02
769.60	232.97
769.92	232.88
770.25	232.78
770.57	232.68
770.90	232.60
771.22	232.53
771.55	232.47
771.87	232.43
772.20	232.36
772.52	232.45
772.85	232.61
773.17	232.56
773.50	232.48
773.82	232.40
774.15	232.26
774.47	232.08
774.80	232.01
775.12	231.96
775.45	231.90
775.77	231.86
776.09	231.82
776.42	231.77
776.74	231.77
777.07	231.72
777.39	231.68
777.72	231.62
778.04	231.60
778.36	231.54
778.69	231.49
779.01	231.47
779.33	231.26
779.66	231.02
779.98	230.95
780.31	230.92
780.63	230.95
780.95	230.94
781.28	230.90
781.60	230.84
781.92	230.80
782.25	230.76
782.57	230.72
782.89	230.67
783.22	230.62
783.54	230.54
783.86	230.53
784.19	230.48
784.51	230.50
784.83	230.44
785.16	230.40
785.48	230.37
785.80	230.33
786.12	230.31
786.45	230.28
786.77	230.26
787.09	230.21
787.42	230.11
787.74	230.08
788.06	230.06
788.38	230.03
788.71	229.98
789.03	229.96
789.35	229.95
789.67	229.90
789.99	229.88
790.32	229.83
790.64	229.81
790.96	229.96
791.28	229.86
791.61	229.83
791.93	229.81
792.25	229.77
792.57	229.87
792.89	229.81
793.21	229.79
793.54	229.74
793.86	229.70
794.18	229.69
794.50	229.63
794.82	229.60
795.14	229.60
795.47	229.61
795.79	229.58
796.11	229.52
796.43	229.49
796.75	229.46
797.07	229.45
797.39	229.42
797.71	229.24
798.04	229.23
798.36	229.21
798.68	229.19
799.00	229.18
799.32	229.07
799.64	229.08
799.96	229.06
800.28	229.07
800.60	229.05
800.92	229.04
801.24	229.01
801.56	229.00
801.89	228.97
802.21	228.95
802.53	228.90
802.85	228.92
803.17	228.98
803.49	228.93
803.81	228.89
804.13	228.86
804.45	228.82
804.77	228.81
805.09	228.80
805.41	228.76
805.73	228.71
806.05	228.64
806.37	228.61
806.69	228.57
807.01	228.52
807.33	228.52
807.65	228.43
807.97	228.50
808.28	228.46
808.60	228.43
808.92	228.38
809.24	228.48
809.56	228.43
809.88	228.35
810.20	228.35
810.52	228.37
810.84	228.33
811.16	228.30
811.48	228.27
811.80	228.32
812.12	228.30
812.43	228.33
812.75	228.33
813.07	228.30
813.39	228.29
813.71	228.26
814.03	228.23
814.35	228.23
814.67	228.14
814.98	228.11
815.30	228.10
815.62	228.06
815.94	227.92
816.26	227.93
816.58	227.89
816.89	227.89
817.21	227.83
817.53	227.83
817.85	227.83
818.17	227.82
818.48	227.74
818.80	227.76
819.12	227.72
819.44	227.68
819.76	227.65
820.07	227.63
820.39	227.62
820.71	227.62
821.03	227.61
821.34	227.59
821.66	227.60
821.98	227.61
822.30	227.59
822.61	227.70
822.93	227.66
823.25	227.65
823.57	227.62
823.88	227.64
824.20	227.63
824.52	227.65
824.83	227.63
825.15	227.60
825.47	227.57
825.79	227.58
826.10	227.57
826.42	227.55
826.74	227.56
827.05	227.55
827.37	227.55
827.69	227.53
828.00	227.53
828.32	227.52
828.64	227.48
828.95	227.57
829.27	227.51
829.58	227.50
829.90	227.53
830.22	227.54
830.53	227.50
830.85	227.47
831.17	227.41
831.48	227.41
831.80	227.41
832.11	227.39
832.43	227.36
832.75	227.35
833.06	227.45
833.38	227.40
833.69	227.38
834.01	227.38
834.32	227.37
834.64	227.35
834.96	227.35
835.27	227.34
835.59	227.27
835.90	227.24
836.22	227.23
836.53	227.18
836.85	227.15
837.16	227.33
837.48	227.33
837.79	227.39
838.11	227.39
838.42	227.38
838.74	227.40
839.05	227.38
839.37	227.37
839.68	227.25
840.00	227.25
840.31	227.27
840.63	227.24
840.94	227.22
841.26	227.20
841.57	227.19
841.88	227.20
842.20	227.17
842.51	227.14
842.83	227.13
843.14	227.29
843.46	227.29
843.77	227.17
844.08	227.15
844.40	227.10
844.71	227.07
845.03	227.05
845.34	227.04
845.65	227.04
845.97	227.04
846.28	227.05
846.60	227.06
846.91	227.03
847.22	227.02
847.54	227.05
847.85	227.06
848.16	227.04
848.48	227.00
848.79	227.07
849.10	227.10
849.42	227.10
849.73	226.93
850.04	226.92
850.36	226.86
850.67	226.89
850.98	226.89
851.30	226.90
851.61	226.89
851.92	226.88
852.23	226.93
852.55	226.94
852.86	226.94
853.17	226.94
853.49	226.98
853.80	227.01
854.11	227.02
854.42	227.05
854.74	227.03
855.05	227.04
855.36	226.93
855.67	226.93
855.99	226.92
856.30	227.14
856.61	227.13
856.92	227.13
857.23	227.14
857.55	227.11
857.86	227.09
858.17	227.12
858.48	227.09
858.79	227.05
859.11	227.07
859.42	227.05
859.73	227.02
860.04	227.00
860.35	226.94
860.66	226.89
860.98	226.87
861.29	226.90
861.60	226.88
861.91	226.92
862.22	226.90
862.53	226.87
862.84	226.65
863.16	226.68
863.47	226.64
863.78	226.62
864.09	226.63
864.40	226.65
864.71	226.64
865.02	226.66
865.33	226.64
865.64	226.61
865.95	226.61
866.27	226.72
866.58	226.70
866.89	226.73
867.20	226.72
867.51	226.69
867.82	226.67
868.13	226.73
868.44	226.69
868.75	226.72
869.06	226.73
869.37	226.76
869.68	226.72
869.99	226.75
870.30	226.76
870.61	226.78
870.92	226.75
871.23	226.73
871.54	226.75
871.85	226.79
872.16	226.81
872.47	226.79
872.78	226.69
873.09	226.70
873.40	226.68
873.71	226.69
874.02	226.70
874.33	226.69
874.64	226.64
874.95	226.67
875.26	226.63
875.56	226.63
875.87	226.60
876.18	226.60
876.49	226.77
876.80	226.75
877.11	226.72
877.42	226.73
877.73	226.73
878.04	226.70
878.35	226.70
878.66	226.70
878.96	226.70
879.27	226.69
879.58	226.67
879.89	226.67
880.20	226.71
880.51	226.70
880.82	226.71
881.12	226.72
881.43	226.68
881.74	226.66
882.05	226.64
882.36	226.65
882.67	226.67
882.97	226.47
883.28	226.45
883.59	226.45
883.90	226.46
884.21	226.49
884.51	226.48
884.82	226.45
885.13	226.45
885.44	226.45
885.74	226.45
886.05	226.45
886.36	226.45
886.67	226.38
886.98	226.48
887.28	226.50
887.59	226.49
887.90	226.50
888.20	226.51
888.51	226.55
888.82	226.52
889.13	226.53
889.43	226.68
889.74	226.67
890.05	226.67
890.35	226.65
890.66	226.62
890.97	226.60
891.28	226.58
891.58	226.58
891.89	226.58
892.20	226.57
892.50	226.55
892.81	226.54
893.12	226.54
893.42	226.45
893.73	226.45
894.04	226.45
894.34	226.46
894.65	226.45
894.95	226.43
895.26	226.44
895.57	226.51
895.87	226.33
896.18	226.36
896.48	226.37
896.79	226.38
897.10	226.41
897.40	226.42
897.71	226.44
898.01	226.42
898.32	226.44
898.63	226.44
898.93	226.45
899.24	226.46
899.54	226.45
899.85	226.45
900.15	226.44
900.46	226.44
900.76	226.45
901.07	226.45
901.38	226.44
901.68	226.46
901.99	226.37
902.29	226.38
902.60	226.36
902.90	226.35
903.21	226.35
903.51	226.33
903.82	226.36
904.12	226.36
904.43	226.37
904.73	226.36
905.03	226.37
905.34	226.54
905.64	226.53
905.95	226.53
906.25	226.53
906.56	226.52
906.86	226.52
907.17	226.50
907.47	226.51
907.77	226.49
908.08	226.46
908.38	226.47
908.69	226.48
908.99	226.51
909.30	226.52
909.60	226.52
909.90	226.52
910.21	226.46
910.51	226.43
910.81	226.43
911.12	226.43
911.42	226.44
911.73	226.25
912.03	226.27
912.33	226.30
912.64	226.28
912.94	226.26
913.24	226.23
913.55	226.22
913.85	226.21
914.15	226.24
914.46	226.26
914.76	226.25
915.06	226.23
915.37	226.19
915.67	226.18
915.97	226.18
916.27	226.15
916.58	226.16
916.88	226.16
917.18	226.15
917.49	226.27
917.79	226.26
918.09	226.28
918.39	226.32
918.70	226.31
919.00	226.32
919.30	226.40
919.60	226.40
919.91	226.38
920.21	226.39
920.51	226.34
920.81	226.33
921.12	226.36
921.42	226.35
921.72	226.37
922.02	226.39
922.32	226.41
922.63	226.42
922.93	226.51
923.23	226.53
923.53	226.51
923.83	226.38
924.13	226.40
924.44	226.39
924.74	226.41
925.04	226.45
925.34	226.45
925.64	226.38
925.94	226.38
926.24	226.48
926.55	226.46
926.85	226.49
927.15	226.49
927.45	226.49
927.75	226.49
928.05	226.49
928.35	226.48
928.65	226.50
928.95	226.52
929.26	226.44
929.56	226.47
929.86	226.49
930.16	226.49
930.46	226.47
930.76	226.48
931.06	226.40
931.36	226.35
931.66	226.38
931.96	226.40
932.26	226.42
932.56	226.34
932.86	226.36
933.16	226.36
933.46	226.34
933.76	226.31
934.06	226.34
934.36	226.40
934.66	226.39
934.96	226.36
935.26	226.37
935.56	226.39
935.86	226.35
936.16	226.32
936.46	226.31
936.76	226.30
937.06	226.28
937.36	226.29
937.66	226.31
937.96	226.29
938.26	226.26
938.56	226.24
938.86	226.25
939.16	226.29
939.46	226.30
939.76	226.32
940.06	226.33
940.35	226.30
940.65	226.21
940.95	226.22
941.25	226.18
941.55	226.16
941.85	226.14
942.15	226.18
942.45	226.23
942.75	226.23
943.04	226.23
943.34	226.27
943.64	226.26
943.94	226.23
944.24	226.23
944.54	226.24
944.84	226.24
945.13	226.21
945.43	226.17
945.73	226.16
946.03	226.15
946.33	226.13
946.62	226.11
946.92	226.11
947.22	226.11
947.52	226.13
947.82	226.16
948.11	226.14
948.41	226.10
948.71	226.05
949.01	226.06
949.31	226.04
949.60	226.01
949.90	226.04
950.20	226.03
950.50	226.03
950.79	226.01
951.09	226.03
951.39	226.03
951.69	226.01
951.98	226.05
952.28	226.05
952.58	226.05
952.87	226.05
953.17	226.08
953.47	226.06
953.76	226.05
954.06	226.01
954.36	225.99
954.66	225.99
954.95	226.04
955.25	226.05
955.55	226.06
955.84	226.03
956.14	226.04
956.44	226.05
956.73	226.03
957.03	226.04
957.32	226.04
957.62	226.04
957.92	226.07
958.21	226.04
958.51	226.25
958.81	226.27
959.10	226.29
959.40	226.32
959.69	226.34
959.99	226.36
960.29	226.37
960.58	226.37
960.88	226.43
961.17	226.41
961.47	226.42
961.76	226.40
962.06	226.44
962.36	226.41
962.65	226.42
962.95	226.43
963.24	226.42
963.54	226.42
963.83	226.43
964.13	226.42
964.42	226.41
964.72	226.25
965.01	226.25
965.31	226.24
965.60	226.19
965.90	226.31
966.19	226.26
966.49	226.28
966.78	226.28
967.08	226.26
967.37	226.26
967.67	226.23
967.96	226.26
968.26	226.26
968.55	226.28
968.85	226.27
969.14	226.27
969.43	226.27
969.73	226.26
970.02	226.25
970.32	226.24
970.61	226.22
970.91	226.17
971.20	226.14
971.49	226.13
971.79	226.15
972.08	226.02
972.38	226.04
972.67	226.02
972.96	226.05
973.26	226.01
973.55	226.07
973.85	226.07
974.14	226.05
974.43	226.06
974.73	226.03
975.02	226.02
975.31	226.02
975.61	226.02
975.90	226.00
976.19	225.99
976.49	226.01
976.78	226.02
977.07	226.02
977.37	226.04
977.66	226.05
977.95	226.03
978.24	226.05
978.54	226.09
978.83	226.08
979.12	226.07
979.42	226.07
979.71	226.03
980.00	226.02
980.29	226.03
980.59	225.99
980.88	226.04
981.17	226.04
981.46	226.04
981.76	226.04
982.05	226.10
982.34	226.11
982.63	226.11
982.93	226.11
983.22	226.16
983.51	226.17
983.80	226.20
984.09	226.22
984.39	226.21
984.68	226.18
984.97	226.19
985.26	226.18
985.55	226.20
985.85	226.16
986.14	226.19
986.43	226.21
986.72	226.21
987.01	226.15
987.30	226.15
987.59	226.13
987.89	226.14
988.18	226.08
988.47	226.06
988.76	226.05
989.05	226.03
989.34	226.00
989.63	226.04
989.92	226.01
990.22	225.98
990.51	225.98
990.80	225.96
991.09	225.98
991.38	226.01
991.67	225.98
991.96	225.97
992.25	225.97
992.54	225.93
992.83	225.94
993.12	225.94
993.41	225.96
993.70	226.04
993.99	226.07
994.28	226.09
994.58	226.12
994.87	226.10
995.16	226.10
995.45	226.09
995.74	226.02
996.03	226.05
996.32	226.08
996.61	226.11
996.90	226.11
997.19	226.10
997.48	226.10
997.77	226.09
998.06	226.11
998.34	226.09
998.63	226.09
998.92	226.10
999.21	226.13
999.50	226.13
999.79	226.06
1000.08	226.06
1000.37	226.06
1000.66	226.03
1000.95	226.08
1001.24	226.10
1001.53	226.12
1001.82	226.13
1002.11	226.08
1002.40	226.09
1002.68	226.13
1002.97	226.26
1003.26	226.24
1003.55	226.21
1003.84	226.23
1004.13	226.28
1004.42	226.28
1004.71	226.28
1004.99	226.27
1005.28	226.31
1005.57	226.30
1005.86	226.28
1006.15	226.27
1006.44	226.24
1006.72	226.26
1007.01	226.23
1007.30	226.23
1007.59	226.21
1007.88	226.20
1008.17	226.22
1008.45	226.18
1008.74	226.10
1009.03	226.02
1009.32	226.02
1009.60	226.02
1009.89	226.00
1010.18	225.93
1010.47	225.92
1010.76	225.92
1011.04	225.91
1011.33	225.90
1011.62	225.92
1011.91	225.93
1012.19	225.94
1012.48	225.95
1012.77	225.94
1013.05	226.00
1013.34	226.00
1013.63	225.99
1013.92	226.01
1014.20	226.00
1014.49	226.01
1014.78	226.03
1015.06	225.97
1015.35	225.97
1015.64	226.00
1015.92	226.03
1016.21	226.04
1016.50	226.05
1016.78	226.07
1017.07	226.08
1017.36	226.05
1017.64	226.02
1017.93	226.03
1018.22	226.02
1018.50	226.02
1018.79	226.02
1019.08	225.96
1019.36	225.97
1019.65	225.95
1019.93	226.00
1020.22	226.03
1020.51	226.12
1020.79	226.10
1021.08	225.79
1021.36	225.80
1021.65	226.04
1021.94	225.98
1022.22	226.08
1022.51	225.68
1022.79	226.88
1023.08	226.27
1023.36	228.19
1023.65	225.49
>>>>>End Processed Spectral Data<<<<<
