SpectraSuite Data File
++++++++++++++++++++++++++++++++++++
Date: Tue Oct 06 13:57:00 EDT 2015
User: lab3
Dark Spectrum Present: No
Reference Spectrum Present: No
Number of Sampled Component Spectra: 1
Spectrometers: USB2E7196
Integration Time (usec): 66000 (USB2E7196)
Spectra Averaged: 1000 (USB2E7196)
Boxcar Smoothing: 10 (USB2E7196)
Correct for Electrical Dark: No (USB2E7196)
Strobe/Lamp Enabled: No (USB2E7196)
Correct for Detector Non-linearity: No (USB2E7196)
Correct for Stray Light: No (USB2E7196)
Number of Pixels in Processed Spectrum: 2048
>>>>>Begin Processed Spectral Data<<<<<
339.09	0.00
339.48	215.68
339.86	217.04
340.24	218.23
340.63	219.80
341.01	224.09
341.39	222.58
341.78	224.01
342.16	225.14
342.54	225.62
342.93	214.09
343.31	224.91
343.69	225.44
344.07	225.91
344.46	226.37
344.84	226.78
345.22	226.96
345.60	227.24
345.99	227.45
346.37	227.61
346.75	227.73
347.13	227.81
347.52	227.89
347.90	228.01
348.28	228.06
348.66	228.15
349.05	228.14
349.43	228.20
349.81	228.27
350.19	228.33
350.57	228.40
350.96	228.50
351.34	228.61
351.72	228.71
352.10	228.83
352.48	228.89
352.87	228.94
353.25	229.02
353.63	229.07
354.01	229.12
354.39	229.20
354.77	229.27
355.15	229.39
355.54	229.44
355.92	229.44
356.30	229.51
356.68	229.69
357.06	229.78
357.44	229.81
357.82	229.87
358.20	230.08
358.58	230.13
358.97	230.19
359.35	230.28
359.73	230.38
360.11	230.42
360.49	230.48
360.87	230.53
361.25	230.59
361.63	230.69
362.01	230.74
362.39	230.77
362.77	230.83
363.15	230.84
363.53	230.87
363.91	230.92
364.29	230.94
364.67	230.80
365.05	230.81
365.43	230.85
365.81	230.88
366.19	230.83
366.57	230.92
366.95	230.91
367.33	230.87
367.71	230.86
368.09	230.89
368.47	230.89
368.85	230.88
369.23	230.91
369.61	230.83
369.99	230.88
370.37	230.88
370.75	230.98
371.13	230.95
371.51	230.91
371.89	230.89
372.27	230.87
372.65	230.85
373.03	230.81
373.41	230.77
373.78	230.72
374.16	230.60
374.54	230.49
374.92	230.44
375.30	230.40
375.68	230.33
376.06	230.30
376.44	230.23
376.82	230.20
377.19	230.16
377.57	230.11
377.95	230.00
378.33	229.94
378.71	229.74
379.09	229.70
379.47	229.67
379.84	229.60
380.22	229.53
380.60	229.46
380.98	229.42
381.36	229.37
381.73	229.31
382.11	229.31
382.49	229.28
382.87	229.22
383.25	229.18
383.62	229.34
384.00	229.27
384.38	229.24
384.76	229.24
385.13	229.25
385.51	229.22
385.89	229.16
386.27	229.14
386.64	229.14
387.02	229.09
387.40	229.05
387.78	229.05
388.15	229.04
388.53	229.00
388.91	228.97
389.29	228.93
389.66	228.95
390.04	228.91
390.42	228.91
390.79	228.91
391.17	228.90
391.55	228.70
391.92	228.70
392.30	228.72
392.68	228.67
393.05	228.64
393.43	228.65
393.81	228.67
394.18	228.65
394.56	228.65
394.94	228.71
395.31	228.71
395.69	228.77
396.06	228.82
396.44	228.88
396.82	228.90
397.19	229.03
397.57	229.05
397.95	229.12
398.32	229.13
398.70	229.20
399.07	229.29
399.45	229.34
399.82	229.41
400.20	229.46
400.58	229.57
400.95	229.60
401.33	229.74
401.70	229.96
402.08	230.11
402.45	230.24
402.83	230.40
403.20	230.58
403.58	230.72
403.95	230.92
404.33	231.15
404.71	231.36
405.08	231.66
405.46	231.90
405.83	232.17
406.21	232.45
406.58	232.79
406.96	233.12
407.33	233.50
407.70	233.92
408.08	234.50
408.45	234.99
408.83	235.55
409.20	236.04
409.58	236.50
409.95	237.12
410.33	237.81
410.70	238.44
411.08	239.18
411.45	239.97
411.82	240.79
412.20	241.70
412.57	242.80
412.95	243.68
413.32	244.81
413.69	245.98
414.07	247.23
414.44	248.57
414.82	249.97
415.19	251.60
415.56	253.25
415.94	254.96
416.31	256.88
416.68	258.81
417.06	261.04
417.43	263.15
417.81	265.56
418.18	268.01
418.55	270.70
418.93	273.51
419.30	276.44
419.67	279.55
420.04	282.74
420.42	286.09
420.79	289.95
421.16	293.83
421.54	297.78
421.91	301.90
422.28	306.18
422.66	310.77
423.03	315.15
423.40	319.75
423.77	324.63
424.15	329.66
424.52	334.86
424.89	340.51
425.26	346.10
425.64	351.31
426.01	357.15
426.38	363.13
426.75	369.25
427.13	375.51
427.50	382.05
427.87	388.82
428.24	395.61
428.61	402.14
428.99	409.18
429.36	416.93
429.73	424.35
430.10	431.72
430.47	439.29
430.85	447.13
431.22	455.47
431.59	464.06
431.96	472.39
432.33	481.67
432.70	490.50
433.08	500.99
433.45	510.86
433.82	520.56
434.19	531.38
434.56	542.06
434.93	552.41
435.30	562.70
435.68	574.41
436.05	585.85
436.42	597.29
436.79	607.76
437.16	619.05
437.53	631.20
437.90	643.41
438.27	655.27
438.64	668.02
439.01	679.66
439.38	690.42
439.75	700.77
440.13	712.57
440.50	723.79
440.87	732.71
441.24	742.50
441.61	753.27
441.98	761.22
442.35	770.59
442.72	780.21
443.09	789.42
443.46	795.49
443.83	800.05
444.20	803.77
444.57	809.23
444.94	812.58
445.31	815.94
445.68	818.76
446.05	820.92
446.42	820.72
446.79	820.31
447.16	819.89
447.53	819.70
447.90	816.38
448.27	813.13
448.64	807.97
449.01	804.58
449.37	797.29
449.74	790.77
450.11	782.28
450.48	772.83
450.85	763.31
451.22	755.02
451.59	746.98
451.96	739.86
452.33	729.37
452.70	719.94
453.07	708.53
453.43	697.19
453.80	686.10
454.17	675.50
454.54	665.59
454.91	654.40
455.28	643.74
455.65	633.64
456.02	623.04
456.38	614.51
456.75	603.45
457.12	594.56
457.49	585.51
457.86	577.03
458.23	569.60
458.59	561.35
458.96	552.94
459.33	545.52
459.70	537.92
460.07	532.06
460.43	525.19
460.80	518.74
461.17	513.09
461.54	507.10
461.91	501.44
462.27	495.72
462.64	491.04
463.01	485.69
463.38	480.37
463.74	475.57
464.11	471.30
464.48	467.48
464.85	463.31
465.21	460.10
465.58	456.54
465.95	452.49
466.32	449.25
466.68	446.08
467.05	442.87
467.42	439.75
467.78	436.41
468.15	433.37
468.52	431.15
468.88	428.19
469.25	425.49
469.62	423.36
469.98	421.02
470.35	418.91
470.72	417.03
471.08	415.09
471.45	413.47
471.82	411.64
472.18	409.73
472.55	408.51
472.92	407.00
473.28	405.79
473.65	404.49
474.02	403.29
474.38	402.28
474.75	401.65
475.11	400.78
475.48	400.38
475.85	399.94
476.21	399.67
476.58	399.50
476.94	399.67
477.31	399.70
477.67	399.82
478.04	400.11
478.41	400.50
478.77	401.09
479.14	401.43
479.50	402.18
479.87	403.15
480.23	404.11
480.60	405.02
480.96	405.95
481.33	407.36
481.69	408.75
482.06	410.12
482.42	411.41
482.79	412.97
483.15	414.81
483.52	416.92
483.88	418.92
484.25	421.06
484.61	423.29
484.98	425.67
485.34	428.37
485.71	431.17
486.07	434.15
486.44	437.04
486.80	440.36
487.17	443.73
487.53	447.43
487.90	451.26
488.26	455.49
488.62	459.92
488.99	464.37
489.35	469.06
489.72	474.12
490.08	479.43
490.44	484.85
490.81	490.42
491.17	496.12
491.54	502.21
491.90	508.44
492.26	515.10
492.63	522.07
492.99	529.29
493.36	536.79
493.72	544.72
494.08	552.80
494.45	561.25
494.81	570.11
495.17	579.16
495.54	588.77
495.90	598.74
496.26	608.97
496.63	619.41
496.99	630.23
497.35	641.45
497.72	653.05
498.08	665.08
498.44	677.38
498.80	690.49
499.17	703.93
499.53	717.83
499.89	732.06
500.26	746.40
500.62	761.05
500.98	776.38
501.34	791.88
501.71	808.13
502.07	824.62
502.43	841.56
502.79	858.65
503.16	876.16
503.52	893.94
503.88	912.17
504.24	930.87
504.60	949.77
504.97	969.15
505.33	988.97
505.69	1009.78
506.05	1030.62
506.41	1051.33
506.78	1072.39
507.14	1094.22
507.50	1116.55
507.86	1139.32
508.22	1162.18
508.59	1184.86
508.95	1208.33
509.31	1232.22
509.67	1256.82
510.03	1281.31
510.39	1306.17
510.75	1331.05
511.12	1356.00
511.48	1380.96
511.84	1406.00
512.20	1431.49
512.56	1457.49
512.92	1483.25
513.28	1508.67
513.64	1534.52
514.00	1560.40
514.37	1586.45
514.73	1612.27
515.09	1637.51
515.45	1663.03
515.81	1688.64
516.17	1714.37
516.53	1739.44
516.89	1764.46
517.25	1789.54
517.61	1814.39
517.97	1839.43
518.33	1864.14
518.69	1888.78
519.05	1913.53
519.41	1938.22
519.77	1962.79
520.13	1987.03
520.49	2011.18
520.85	2035.29
521.21	2059.23
521.57	2083.41
521.93	2106.47
522.29	2130.03
522.65	2153.17
523.01	2176.07
523.37	2198.18
523.73	2220.64
524.09	2243.27
524.45	2265.95
524.81	2287.75
525.17	2309.36
525.53	2330.33
525.89	2351.52
526.25	2372.28
526.61	2392.00
526.97	2411.95
527.33	2431.44
527.68	2450.04
528.04	2468.02
528.40	2485.10
528.76	2502.57
529.12	2518.90
529.48	2535.63
529.84	2551.07
530.20	2567.60
530.56	2583.04
530.91	2598.38
531.27	2612.73
531.63	2626.07
531.99	2639.12
532.35	2650.68
532.71	2662.35
533.07	2674.26
533.42	2684.61
533.78	2695.68
534.14	2706.94
534.50	2716.76
534.86	2726.74
535.21	2734.75
535.57	2742.83
535.93	2751.26
536.29	2758.63
536.65	2766.23
537.00	2771.75
537.36	2777.58
537.72	2781.70
538.08	2785.54
538.44	2788.52
538.79	2791.83
539.15	2794.52
539.51	2796.59
539.87	2799.31
540.22	2799.87
540.58	2801.00
540.94	2801.74
541.29	2801.03
541.65	2798.88
542.01	2796.74
542.37	2793.57
542.72	2792.20
543.08	2789.53
543.44	2786.66
543.79	2781.97
544.15	2777.16
544.51	2773.14
544.87	2767.19
545.22	2760.63
545.58	2754.29
545.94	2748.75
546.29	2741.47
546.65	2733.53
547.01	2725.62
547.36	2717.35
547.72	2709.06
548.07	2699.47
548.43	2689.65
548.79	2678.82
549.14	2668.92
549.50	2658.95
549.86	2648.38
550.21	2635.85
550.57	2624.66
550.92	2611.66
551.28	2599.38
551.64	2587.27
551.99	2575.31
552.35	2563.49
552.70	2551.47
553.06	2539.78
553.41	2526.92
553.77	2513.71
554.13	2500.76
554.48	2487.03
554.84	2472.70
555.19	2459.37
555.55	2445.29
555.90	2431.40
556.26	2418.43
556.61	2404.76
556.97	2390.06
557.32	2375.69
557.68	2361.60
558.03	2346.84
558.39	2333.00
558.74	2319.41
559.10	2303.77
559.45	2288.60
559.81	2274.12
560.16	2259.26
560.52	2244.10
560.87	2229.71
561.23	2214.89
561.58	2200.40
561.94	2185.24
562.29	2170.22
562.64	2155.12
563.00	2140.12
563.35	2125.72
563.71	2111.12
564.06	2096.03
564.42	2081.44
564.77	2066.93
565.12	2052.82
565.48	2038.62
565.83	2024.01
566.19	2009.61
566.54	1995.72
566.89	1980.60
567.25	1964.98
567.60	1950.56
567.96	1935.55
568.31	1920.00
568.66	1905.27
569.02	1890.60
569.37	1876.03
569.72	1861.80
570.08	1847.42
570.43	1832.99
570.78	1817.75
571.14	1802.53
571.49	1787.73
571.84	1773.79
572.20	1758.52
572.55	1743.46
572.90	1727.90
573.26	1712.38
573.61	1696.47
573.96	1681.18
574.31	1666.59
574.67	1652.51
575.02	1637.60
575.37	1622.44
575.72	1607.15
576.08	1592.21
576.43	1577.32
576.78	1562.50
577.13	1547.73
577.49	1532.93
577.84	1518.11
578.19	1503.50
578.54	1488.89
578.90	1474.18
579.25	1458.93
579.60	1444.94
579.95	1430.84
580.30	1416.97
580.66	1403.16
581.01	1389.56
581.36	1375.81
581.71	1361.95
582.06	1348.15
582.42	1334.52
582.77	1321.22
583.12	1308.22
583.47	1295.11
583.82	1282.06
584.17	1269.06
584.53	1256.08
584.88	1243.53
585.23	1230.77
585.58	1218.27
585.93	1205.73
586.28	1193.84
586.63	1181.82
586.98	1169.66
587.34	1157.87
587.69	1145.83
588.04	1134.17
588.39	1122.62
588.74	1111.02
589.09	1099.78
589.44	1088.02
589.79	1076.83
590.14	1065.79
590.49	1054.86
590.84	1044.20
591.19	1033.62
591.54	1022.99
591.89	1012.16
592.25	1001.38
592.60	990.56
592.95	980.01
593.30	969.55
593.65	958.98
594.00	948.70
594.35	939.06
594.70	928.95
595.05	919.54
595.40	909.93
595.75	900.21
596.10	890.91
596.45	881.52
596.80	872.49
597.15	863.43
597.50	854.45
597.85	845.80
598.19	837.06
598.54	828.37
598.89	819.87
599.24	811.82
599.59	803.80
599.94	796.28
600.29	788.59
600.64	780.98
600.99	773.38
601.34	765.99
601.69	758.01
602.04	750.66
602.39	743.44
602.74	736.42
603.08	729.49
603.43	722.59
603.78	715.80
604.13	709.16
604.48	702.53
604.83	696.10
605.18	689.67
605.53	683.38
605.87	676.97
606.22	670.83
606.57	664.64
606.92	658.35
607.27	652.21
607.62	646.39
607.96	640.68
608.31	635.24
608.66	629.64
609.01	624.31
609.36	619.17
609.70	613.90
610.05	608.61
610.40	603.44
610.75	598.22
611.10	593.32
611.44	588.35
611.79	583.49
612.14	578.60
612.49	573.69
612.83	568.99
613.18	564.59
613.53	560.14
613.88	555.71
614.22	551.53
614.57	547.21
614.92	542.96
615.27	538.82
615.61	534.69
615.96	530.74
616.31	526.78
616.65	522.81
617.00	518.95
617.35	515.18
617.70	511.51
618.04	508.00
618.39	504.36
618.74	500.90
619.08	497.35
619.43	493.90
619.78	490.59
620.12	487.32
620.47	484.15
620.82	481.01
621.16	477.94
621.51	474.99
621.85	472.10
622.20	469.26
622.55	466.39
622.89	463.58
623.24	460.90
623.59	458.22
623.93	455.62
624.28	453.11
624.62	450.82
624.97	448.51
625.32	446.04
625.66	443.61
626.01	441.21
626.35	439.02
626.70	436.77
627.04	434.68
627.39	432.47
627.73	430.31
628.08	428.28
628.43	426.30
628.77	424.28
629.12	422.40
629.46	420.48
629.81	418.69
630.15	416.83
630.50	414.98
630.84	413.23
631.19	411.53
631.53	409.86
631.88	408.00
632.22	406.22
632.57	404.81
632.91	403.37
633.26	401.98
633.60	400.53
633.95	399.15
634.29	397.63
634.64	396.22
634.98	394.69
635.32	393.30
635.67	392.00
636.01	390.68
636.36	389.39
636.70	388.24
637.05	386.95
637.39	385.77
637.73	384.63
638.08	383.52
638.42	382.42
638.77	381.22
639.11	380.00
639.45	378.85
639.80	377.63
640.14	376.47
640.49	375.27
640.83	374.14
641.17	373.02
641.52	371.93
641.86	370.89
642.20	370.01
642.55	368.94
642.89	367.90
643.23	366.87
643.58	365.96
643.92	364.89
644.26	363.91
644.61	362.99
644.95	362.00
645.29	361.01
645.64	360.00
645.98	359.06
646.32	358.21
646.66	357.29
647.01	356.36
647.35	355.53
647.69	354.68
648.04	353.87
648.38	353.00
648.72	352.22
649.06	351.45
649.41	350.61
649.75	349.82
650.09	349.08
650.43	348.33
650.78	347.52
651.12	346.76
651.46	346.01
651.80	345.29
652.14	344.57
652.49	343.90
652.83	343.17
653.17	342.48
653.51	341.79
653.85	341.20
654.20	340.58
654.54	339.85
654.88	339.18
655.22	338.53
655.56	337.82
655.90	337.12
656.25	336.42
656.59	335.76
656.93	335.14
657.27	334.55
657.61	333.88
657.95	333.28
658.29	332.67
658.64	332.14
658.98	331.53
659.32	330.92
659.66	330.31
660.00	329.76
660.34	329.18
660.68	328.58
661.02	327.93
661.36	327.28
661.70	326.71
662.05	326.16
662.39	325.65
662.73	325.21
663.07	324.79
663.41	324.28
663.75	323.73
664.09	323.19
664.43	322.58
664.77	322.08
665.11	321.48
665.45	320.96
665.79	320.41
666.13	319.85
666.47	319.31
666.81	318.74
667.15	318.14
667.49	317.65
667.83	317.21
668.17	316.75
668.51	316.33
668.85	315.89
669.19	315.50
669.53	314.96
669.87	314.44
670.21	313.94
670.55	313.49
670.89	313.16
671.23	312.73
671.57	312.31
671.91	311.92
672.25	311.55
672.58	311.17
672.92	310.71
673.26	310.31
673.60	309.90
673.94	309.51
674.28	309.14
674.62	308.77
674.96	308.32
675.30	307.91
675.64	307.47
675.97	307.04
676.31	306.55
676.65	306.12
676.99	305.78
677.33	305.30
677.67	304.86
678.01	304.30
678.34	303.85
678.68	303.44
679.02	302.96
679.36	302.52
679.70	302.05
680.04	301.63
680.37	301.20
680.71	300.79
681.05	300.39
681.39	299.96
681.73	299.47
682.06	299.00
682.40	298.57
682.74	298.20
683.08	297.84
683.42	297.40
683.75	296.99
684.09	296.45
684.43	296.01
684.77	295.55
685.10	295.17
685.44	294.78
685.78	294.36
686.12	293.95
686.45	293.51
686.79	293.06
687.13	292.65
687.46	292.19
687.80	291.75
688.14	291.26
688.48	290.82
688.81	290.41
689.15	290.06
689.49	289.60
689.82	289.13
690.16	288.59
690.50	288.18
690.83	287.75
691.17	287.30
691.51	286.89
691.84	286.53
692.18	286.10
692.52	285.63
692.85	285.19
693.19	284.84
693.52	284.43
693.86	284.03
694.20	283.61
694.53	283.21
694.87	282.76
695.21	282.34
695.54	281.92
695.88	281.47
696.21	280.96
696.55	280.54
696.88	280.10
697.22	279.69
697.56	279.27
697.89	278.81
698.23	278.40
698.56	277.96
698.90	277.52
699.23	277.07
699.57	276.67
699.90	276.22
700.24	275.73
700.58	275.32
700.91	274.95
701.25	274.70
701.58	274.38
701.92	274.05
702.25	273.69
702.59	273.30
702.92	272.92
703.26	272.55
703.59	272.16
703.93	271.93
704.26	271.58
704.60	271.19
704.93	270.80
705.26	270.40
705.60	270.07
705.93	269.63
706.27	269.32
706.60	268.98
706.94	268.69
707.27	268.28
707.61	267.90
707.94	267.50
708.27	266.98
708.61	266.52
708.94	266.11
709.28	265.75
709.61	265.37
709.94	265.04
710.28	264.72
710.61	264.42
710.95	263.94
711.28	263.71
711.61	263.38
711.95	263.10
712.28	262.77
712.61	262.42
712.95	262.20
713.28	261.95
713.61	261.59
713.95	261.22
714.28	260.93
714.61	260.61
714.95	260.29
715.28	259.97
715.61	259.68
715.95	259.41
716.28	259.09
716.61	258.82
716.95	258.48
717.28	258.17
717.61	257.84
717.94	257.55
718.28	257.13
718.61	256.84
718.94	256.52
719.27	256.25
719.61	256.01
719.94	255.71
720.27	255.34
720.60	255.07
720.94	254.81
721.27	254.57
721.60	254.33
721.93	254.07
722.27	253.89
722.60	253.66
722.93	253.37
723.26	253.15
723.59	252.89
723.93	252.70
724.26	252.50
724.59	252.27
724.92	252.06
725.25	251.89
725.59	251.67
725.92	251.49
726.25	251.27
726.58	251.05
726.91	250.81
727.24	250.61
727.57	250.39
727.91	250.15
728.24	249.97
728.57	249.76
728.90	249.58
729.23	249.32
729.56	249.20
729.89	249.01
730.22	248.80
730.55	248.58
730.89	248.37
731.22	248.14
731.55	247.92
731.88	247.72
732.21	247.50
732.54	247.29
732.87	247.10
733.20	246.92
733.53	246.73
733.86	246.57
734.19	246.36
734.52	246.22
734.85	246.16
735.18	245.95
735.51	245.85
735.84	245.68
736.17	245.56
736.50	245.28
736.83	245.31
737.16	245.15
737.49	245.00
737.82	244.82
738.15	244.69
738.48	244.54
738.81	244.37
739.14	244.18
739.47	244.01
739.80	243.83
740.13	243.69
740.46	243.50
740.79	243.32
741.12	243.18
741.45	242.99
741.78	242.74
742.11	242.63
742.44	242.42
742.77	242.28
743.10	242.10
743.43	241.95
743.75	241.62
744.08	241.75
744.41	241.59
744.74	241.45
745.07	241.28
745.40	241.18
745.73	241.12
746.06	241.00
746.39	240.91
746.71	240.77
747.04	240.62
747.37	240.49
747.70	240.39
748.03	240.26
748.36	240.16
748.68	240.04
749.01	239.87
749.34	239.76
749.67	239.65
750.00	239.55
750.33	239.57
750.65	239.47
750.98	239.10
751.31	239.00
751.64	238.90
751.97	238.88
752.29	238.74
752.62	238.54
752.95	238.40
753.28	238.26
753.60	238.14
753.93	238.07
754.26	237.98
754.59	237.82
754.91	237.69
755.24	237.57
755.57	237.46
755.90	237.35
756.22	237.23
756.55	237.09
756.88	236.97
757.20	236.75
757.53	236.59
757.86	236.48
758.19	236.40
758.51	236.29
758.84	236.12
759.17	236.01
759.49	235.94
759.82	235.94
760.15	235.87
760.47	235.78
760.80	235.66
761.13	235.59
761.45	235.50
761.78	235.44
762.11	235.37
762.43	235.26
762.76	235.17
763.08	235.10
763.41	235.02
763.74	234.95
764.06	234.88
764.39	234.81
764.71	234.73
765.04	234.63
765.37	234.55
765.69	234.47
766.02	234.40
766.34	234.31
766.67	234.17
767.00	234.13
767.32	234.15
767.65	234.19
767.97	234.11
768.30	234.06
768.62	233.99
768.95	233.90
769.27	233.84
769.60	233.81
769.92	233.72
770.25	233.63
770.57	233.53
770.90	233.46
771.22	233.39
771.55	233.35
771.87	233.31
772.20	233.25
772.52	233.35
772.85	233.51
773.17	233.46
773.50	233.40
773.82	233.32
774.15	233.19
774.47	233.02
774.80	232.95
775.12	232.89
775.45	232.83
775.77	232.81
776.09	232.78
776.42	232.73
776.74	232.75
777.07	232.71
777.39	232.69
777.72	232.64
778.04	232.62
778.36	232.54
778.69	232.48
779.01	232.45
779.33	232.25
779.66	232.00
779.98	231.94
780.31	231.91
780.63	231.96
780.95	231.95
781.28	231.92
781.60	231.87
781.92	231.84
782.25	231.81
782.57	231.76
782.89	231.70
783.22	231.66
783.54	231.57
783.86	231.56
784.19	231.51
784.51	231.53
784.83	231.48
785.16	231.46
785.48	231.43
785.80	231.40
786.12	231.38
786.45	231.35
786.77	231.34
787.09	231.30
787.42	231.20
787.74	231.16
788.06	231.13
788.38	231.10
788.71	231.05
789.03	231.03
789.35	231.03
789.67	230.99
789.99	230.98
790.32	230.92
790.64	230.91
790.96	231.03
791.28	230.94
791.61	230.91
791.93	230.90
792.25	230.86
792.57	230.95
792.89	230.90
793.21	230.89
793.54	230.84
793.86	230.80
794.18	230.78
794.50	230.73
794.82	230.71
795.14	230.71
795.47	230.73
795.79	230.70
796.11	230.64
796.43	230.61
796.75	230.58
797.07	230.57
797.39	230.55
797.71	230.39
798.04	230.37
798.36	230.36
798.68	230.34
799.00	230.34
799.32	230.24
799.64	230.25
799.96	230.22
800.28	230.23
800.60	230.20
800.92	230.19
801.24	230.15
801.56	230.15
801.89	230.11
802.21	230.09
802.53	230.05
802.85	230.06
803.17	230.13
803.49	230.07
803.81	230.03
804.13	229.99
804.45	229.96
804.77	229.96
805.09	229.94
805.41	229.90
805.73	229.85
806.05	229.77
806.37	229.74
806.69	229.72
807.01	229.69
807.33	229.69
807.65	229.62
807.97	229.69
808.28	229.65
808.60	229.62
808.92	229.58
809.24	229.68
809.56	229.63
809.88	229.56
810.20	229.56
810.52	229.59
810.84	229.56
811.16	229.52
811.48	229.49
811.80	229.54
812.12	229.52
812.43	229.54
812.75	229.55
813.07	229.53
813.39	229.52
813.71	229.48
814.03	229.46
814.35	229.45
814.67	229.38
814.98	229.35
815.30	229.34
815.62	229.31
815.94	229.19
816.26	229.20
816.58	229.15
816.89	229.15
817.21	229.10
817.53	229.11
817.85	229.11
818.17	229.09
818.48	229.01
818.80	229.03
819.12	229.00
819.44	228.95
819.76	228.92
820.07	228.91
820.39	228.90
820.71	228.90
821.03	228.89
821.34	228.86
821.66	228.88
821.98	228.87
822.30	228.87
822.61	228.96
822.93	228.92
823.25	228.91
823.57	228.88
823.88	228.90
824.20	228.88
824.52	228.90
824.83	228.88
825.15	228.86
825.47	228.85
825.79	228.86
826.10	228.85
826.42	228.84
826.74	228.84
827.05	228.83
827.37	228.83
827.69	228.82
828.00	228.82
828.32	228.81
828.64	228.79
828.95	228.87
829.27	228.82
829.58	228.80
829.90	228.82
830.22	228.82
830.53	228.79
830.85	228.77
831.17	228.72
831.48	228.71
831.80	228.71
832.11	228.68
832.43	228.64
832.75	228.63
833.06	228.73
833.38	228.68
833.69	228.67
834.01	228.67
834.32	228.66
834.64	228.64
834.96	228.63
835.27	228.63
835.59	228.56
835.90	228.52
836.22	228.51
836.53	228.47
836.85	228.45
837.16	228.62
837.48	228.62
837.79	228.68
838.11	228.68
838.42	228.68
838.74	228.70
839.05	228.67
839.37	228.66
839.68	228.54
840.00	228.53
840.31	228.55
840.63	228.51
840.94	228.50
841.26	228.47
841.57	228.47
841.88	228.48
842.20	228.44
842.51	228.42
842.83	228.42
843.14	228.59
843.46	228.58
843.77	228.48
844.08	228.46
844.40	228.39
844.71	228.36
845.03	228.35
845.34	228.33
845.65	228.34
845.97	228.35
846.28	228.36
846.60	228.38
846.91	228.34
847.22	228.35
847.54	228.38
847.85	228.40
848.16	228.37
848.48	228.33
848.79	228.40
849.10	228.42
849.42	228.42
849.73	228.24
850.04	228.24
850.36	228.17
850.67	228.20
850.98	228.21
851.30	228.22
851.61	228.21
851.92	228.20
852.23	228.24
852.55	228.24
852.86	228.23
853.17	228.23
853.49	228.27
853.80	228.30
854.11	228.29
854.42	228.31
854.74	228.31
855.05	228.32
855.36	228.24
855.67	228.24
855.99	228.24
856.30	228.45
856.61	228.44
856.92	228.45
857.23	228.46
857.55	228.43
857.86	228.42
858.17	228.45
858.48	228.42
858.79	228.38
859.11	228.39
859.42	228.39
859.73	228.36
860.04	228.35
860.35	228.29
860.66	228.24
860.98	228.21
861.29	228.22
861.60	228.21
861.91	228.25
862.22	228.22
862.53	228.19
862.84	227.98
863.16	228.02
863.47	227.98
863.78	227.95
864.09	227.96
864.40	227.98
864.71	227.98
865.02	228.01
865.33	227.99
865.64	227.96
865.95	227.97
866.27	228.07
866.58	228.05
866.89	228.08
867.20	228.07
867.51	228.06
867.82	228.04
868.13	228.09
868.44	228.05
868.75	228.08
869.06	228.09
869.37	228.11
869.68	228.06
869.99	228.09
870.30	228.10
870.61	228.12
870.92	228.09
871.23	228.07
871.54	228.08
871.85	228.13
872.16	228.15
872.47	228.14
872.78	228.04
873.09	228.05
873.40	228.03
873.71	228.05
874.02	228.06
874.33	228.04
874.64	228.00
874.95	228.03
875.26	227.98
875.56	227.98
875.87	227.97
876.18	227.96
876.49	228.13
876.80	228.11
877.11	228.07
877.42	228.08
877.73	228.09
878.04	228.05
878.35	228.04
878.66	228.04
878.96	228.03
879.27	228.03
879.58	228.02
879.89	228.02
880.20	228.07
880.51	228.06
880.82	228.07
881.12	228.08
881.43	228.03
881.74	228.02
882.05	228.01
882.36	228.01
882.67	228.02
882.97	227.83
883.28	227.82
883.59	227.81
883.90	227.83
884.21	227.85
884.51	227.86
884.82	227.83
885.13	227.83
885.44	227.83
885.74	227.83
886.05	227.82
886.36	227.82
886.67	227.76
886.98	227.86
887.28	227.86
887.59	227.86
887.90	227.88
888.20	227.88
888.51	227.91
888.82	227.90
889.13	227.90
889.43	228.07
889.74	228.06
890.05	228.06
890.35	228.05
890.66	228.01
890.97	227.99
891.28	227.98
891.58	227.98
891.89	227.98
892.20	227.96
892.50	227.95
892.81	227.93
893.12	227.93
893.42	227.83
893.73	227.84
894.04	227.84
894.34	227.85
894.65	227.85
894.95	227.84
895.26	227.84
895.57	227.92
895.87	227.75
896.18	227.77
896.48	227.78
896.79	227.77
897.10	227.79
897.40	227.80
897.71	227.83
898.01	227.81
898.32	227.83
898.63	227.84
898.93	227.85
899.24	227.85
899.54	227.85
899.85	227.85
900.15	227.83
900.46	227.82
900.76	227.83
901.07	227.83
901.38	227.82
901.68	227.85
901.99	227.76
902.29	227.78
902.60	227.76
902.90	227.75
903.21	227.77
903.51	227.75
903.82	227.79
904.12	227.78
904.43	227.79
904.73	227.78
905.03	227.78
905.34	227.95
905.64	227.93
905.95	227.93
906.25	227.93
906.56	227.93
906.86	227.95
907.17	227.94
907.47	227.94
907.77	227.92
908.08	227.89
908.38	227.89
908.69	227.90
908.99	227.93
909.30	227.94
909.60	227.92
909.90	227.92
910.21	227.87
910.51	227.84
910.81	227.84
911.12	227.85
911.42	227.85
911.73	227.67
912.03	227.69
912.33	227.74
912.64	227.71
912.94	227.69
913.24	227.65
913.55	227.64
913.85	227.63
914.15	227.67
914.46	227.69
914.76	227.68
915.06	227.67
915.37	227.65
915.67	227.63
915.97	227.63
916.27	227.59
916.58	227.60
916.88	227.60
917.18	227.58
917.49	227.69
917.79	227.68
918.09	227.70
918.39	227.74
918.70	227.72
919.00	227.73
919.30	227.82
919.60	227.81
919.91	227.80
920.21	227.80
920.51	227.75
920.81	227.74
921.12	227.76
921.42	227.75
921.72	227.75
922.02	227.76
922.32	227.78
922.63	227.79
922.93	227.88
923.23	227.90
923.53	227.88
923.83	227.75
924.13	227.77
924.44	227.76
924.74	227.79
925.04	227.83
925.34	227.85
925.64	227.77
925.94	227.77
926.24	227.86
926.55	227.85
926.85	227.88
927.15	227.87
927.45	227.87
927.75	227.86
928.05	227.86
928.35	227.85
928.65	227.88
928.95	227.90
929.26	227.82
929.56	227.85
929.86	227.88
930.16	227.87
930.46	227.86
930.76	227.86
931.06	227.77
931.36	227.71
931.66	227.73
931.96	227.74
932.26	227.76
932.56	227.69
932.86	227.69
933.16	227.69
933.46	227.66
933.76	227.63
934.06	227.67
934.36	227.73
934.66	227.74
934.96	227.71
935.26	227.72
935.56	227.74
935.86	227.71
936.16	227.68
936.46	227.67
936.76	227.66
937.06	227.63
937.36	227.65
937.66	227.66
937.96	227.65
938.26	227.62
938.56	227.60
938.86	227.61
939.16	227.65
939.46	227.67
939.76	227.68
940.06	227.68
940.35	227.65
940.65	227.56
940.95	227.58
941.25	227.54
941.55	227.51
941.85	227.49
942.15	227.53
942.45	227.57
942.75	227.56
943.04	227.57
943.34	227.61
943.64	227.59
943.94	227.57
944.24	227.56
944.54	227.58
944.84	227.58
945.13	227.55
945.43	227.51
945.73	227.50
946.03	227.49
946.33	227.46
946.62	227.44
946.92	227.44
947.22	227.44
947.52	227.46
947.82	227.48
948.11	227.46
948.41	227.43
948.71	227.38
949.01	227.40
949.31	227.38
949.60	227.36
949.90	227.39
950.20	227.38
950.50	227.38
950.79	227.37
951.09	227.40
951.39	227.40
951.69	227.39
951.98	227.42
952.28	227.44
952.58	227.45
952.87	227.47
953.17	227.48
953.47	227.46
953.76	227.46
954.06	227.42
954.36	227.40
954.66	227.40
954.95	227.44
955.25	227.45
955.55	227.47
955.84	227.44
956.14	227.46
956.44	227.47
956.73	227.44
957.03	227.45
957.32	227.44
957.62	227.44
957.92	227.46
958.21	227.44
958.51	227.63
958.81	227.64
959.10	227.66
959.40	227.69
959.69	227.70
959.99	227.73
960.29	227.74
960.58	227.73
960.88	227.80
961.17	227.78
961.47	227.79
961.76	227.77
962.06	227.80
962.36	227.76
962.65	227.77
962.95	227.77
963.24	227.76
963.54	227.77
963.83	227.79
964.13	227.78
964.42	227.77
964.72	227.63
965.01	227.64
965.31	227.63
965.60	227.58
965.90	227.69
966.19	227.65
966.49	227.66
966.78	227.66
967.08	227.64
967.37	227.63
967.67	227.59
967.96	227.63
968.26	227.63
968.55	227.67
968.85	227.67
969.14	227.67
969.43	227.67
969.73	227.65
970.02	227.62
970.32	227.61
970.61	227.58
970.91	227.53
971.20	227.50
971.49	227.48
971.79	227.51
972.08	227.39
972.38	227.40
972.67	227.38
972.96	227.41
973.26	227.37
973.55	227.43
973.85	227.42
974.14	227.40
974.43	227.41
974.73	227.36
975.02	227.34
975.31	227.34
975.61	227.35
975.90	227.33
976.19	227.32
976.49	227.33
976.78	227.35
977.07	227.34
977.37	227.35
977.66	227.37
977.95	227.35
978.24	227.36
978.54	227.40
978.83	227.39
979.12	227.37
979.42	227.37
979.71	227.33
980.00	227.32
980.29	227.33
980.59	227.29
980.88	227.34
981.17	227.34
981.46	227.34
981.76	227.34
982.05	227.40
982.34	227.41
982.63	227.41
982.93	227.41
983.22	227.45
983.51	227.47
983.80	227.51
984.09	227.53
984.39	227.51
984.68	227.49
984.97	227.51
985.26	227.50
985.55	227.51
985.85	227.49
986.14	227.53
986.43	227.56
986.72	227.56
987.01	227.50
987.30	227.50
987.59	227.49
987.89	227.49
988.18	227.43
988.47	227.41
988.76	227.40
989.05	227.39
989.34	227.36
989.63	227.39
989.92	227.35
990.22	227.31
990.51	227.31
990.80	227.30
991.09	227.31
991.38	227.34
991.67	227.33
991.96	227.31
992.25	227.32
992.54	227.28
992.83	227.28
993.12	227.29
993.41	227.33
993.70	227.41
993.99	227.43
994.28	227.45
994.58	227.48
994.87	227.47
995.16	227.48
995.45	227.46
995.74	227.40
996.03	227.42
996.32	227.45
996.61	227.49
996.90	227.50
997.19	227.48
997.48	227.47
997.77	227.45
998.06	227.46
998.34	227.43
998.63	227.44
998.92	227.45
999.21	227.49
999.50	227.47
999.79	227.41
1000.08	227.41
1000.37	227.42
1000.66	227.40
1000.95	227.45
1001.24	227.45
1001.53	227.49
1001.82	227.49
1002.11	227.45
1002.40	227.47
1002.68	227.50
1002.97	227.63
1003.26	227.61
1003.55	227.59
1003.84	227.61
1004.13	227.66
1004.42	227.65
1004.71	227.65
1004.99	227.64
1005.28	227.67
1005.57	227.65
1005.86	227.64
1006.15	227.63
1006.44	227.60
1006.72	227.63
1007.01	227.60
1007.30	227.58
1007.59	227.56
1007.88	227.56
1008.17	227.58
1008.45	227.54
1008.74	227.47
1009.03	227.38
1009.32	227.39
1009.60	227.40
1009.89	227.38
1010.18	227.31
1010.47	227.31
1010.76	227.30
1011.04	227.29
1011.33	227.28
1011.62	227.29
1011.91	227.30
1012.19	227.31
1012.48	227.32
1012.77	227.32
1013.05	227.37
1013.34	227.38
1013.63	227.37
1013.92	227.38
1014.20	227.37
1014.49	227.37
1014.78	227.40
1015.06	227.34
1015.35	227.34
1015.64	227.37
1015.92	227.40
1016.21	227.42
1016.50	227.42
1016.78	227.44
1017.07	227.46
1017.36	227.43
1017.64	227.40
1017.93	227.43
1018.22	227.40
1018.50	227.39
1018.79	227.38
1019.08	227.32
1019.36	227.33
1019.65	227.30
1019.93	227.34
1020.22	227.36
1020.51	227.45
1020.79	227.42
1021.08	227.08
1021.36	227.02
1021.65	227.35
1021.94	227.23
1022.22	227.44
1022.51	226.72
1022.79	228.18
1023.08	227.37
1023.36	229.51
1023.65	226.92
>>>>>End Processed Spectral Data<<<<<
