SpectraSuite Data File
++++++++++++++++++++++++++++++++++++
Date: Wed Oct 07 06:04:05 EDT 2015
User: lab3
Dark Spectrum Present: No
Reference Spectrum Present: No
Number of Sampled Component Spectra: 1
Spectrometers: USB2E7196
Integration Time (usec): 66000 (USB2E7196)
Spectra Averaged: 10000 (USB2E7196)
Boxcar Smoothing: 10 (USB2E7196)
Correct for Electrical Dark: No (USB2E7196)
Strobe/Lamp Enabled: No (USB2E7196)
Correct for Detector Non-linearity: No (USB2E7196)
Correct for Stray Light: No (USB2E7196)
Number of Pixels in Processed Spectrum: 2048
>>>>>Begin Processed Spectral Data<<<<<
339.09	0.00
339.48	213.07
339.86	214.50
340.24	215.85
340.63	217.27
341.01	221.46
341.39	219.97
341.78	221.58
342.16	222.86
342.54	223.04
342.93	211.66
343.31	222.35
343.69	222.89
344.07	223.36
344.46	223.80
344.84	224.22
345.22	224.41
345.60	224.70
345.99	224.90
346.37	225.04
346.75	225.17
347.13	225.26
347.52	225.36
347.90	225.48
348.28	225.54
348.66	225.62
349.05	225.61
349.43	225.69
349.81	225.77
350.19	225.84
350.57	225.92
350.96	226.02
351.34	226.13
351.72	226.25
352.10	226.36
352.48	226.44
352.87	226.49
353.25	226.56
353.63	226.61
354.01	226.67
354.39	226.75
354.77	226.83
355.15	226.95
355.54	226.99
355.92	227.01
356.30	227.08
356.68	227.27
357.06	227.35
357.44	227.38
357.82	227.44
358.20	227.66
358.58	227.71
358.97	227.78
359.35	227.87
359.73	227.97
360.11	228.02
360.49	228.09
360.87	228.14
361.25	228.21
361.63	228.32
362.01	228.38
362.39	228.40
362.77	228.46
363.15	228.48
363.53	228.51
363.91	228.55
364.29	228.57
364.67	228.42
365.05	228.45
365.43	228.49
365.81	228.54
366.19	228.48
366.57	228.57
366.95	228.57
367.33	228.53
367.71	228.52
368.09	228.55
368.47	228.55
368.85	228.54
369.23	228.56
369.61	228.49
369.99	228.53
370.37	228.53
370.75	228.66
371.13	228.62
371.51	228.58
371.89	228.56
372.27	228.55
372.65	228.53
373.03	228.49
373.41	228.44
373.78	228.39
374.16	228.26
374.54	228.16
374.92	228.10
375.30	228.07
375.68	227.99
376.06	227.95
376.44	227.90
376.82	227.86
377.19	227.81
377.57	227.76
377.95	227.66
378.33	227.60
378.71	227.38
379.09	227.35
379.47	227.33
379.84	227.26
380.22	227.20
380.60	227.12
380.98	227.07
381.36	227.02
381.73	226.96
382.11	226.95
382.49	226.92
382.87	226.86
383.25	226.82
383.62	226.99
384.00	226.91
384.38	226.88
384.76	226.88
385.13	226.90
385.51	226.86
385.89	226.81
386.27	226.78
386.64	226.78
387.02	226.72
387.40	226.68
387.78	226.66
388.15	226.65
388.53	226.62
388.91	226.60
389.29	226.57
389.66	226.58
390.04	226.54
390.42	226.55
390.79	226.55
391.17	226.53
391.55	226.32
391.92	226.32
392.30	226.33
392.68	226.29
393.05	226.27
393.43	226.29
393.81	226.31
394.18	226.29
394.56	226.30
394.94	226.37
395.31	226.37
395.69	226.45
396.06	226.50
396.44	226.55
396.82	226.57
397.19	226.70
397.57	226.73
397.95	226.80
398.32	226.80
398.70	226.88
399.07	226.98
399.45	227.05
399.82	227.12
400.20	227.19
400.58	227.28
400.95	227.30
401.33	227.44
401.70	227.68
402.08	227.83
402.45	227.96
402.83	228.14
403.20	228.32
403.58	228.45
403.95	228.67
404.33	228.90
404.71	229.12
405.08	229.44
405.46	229.70
405.83	229.99
406.21	230.30
406.58	230.63
406.96	230.97
407.33	231.35
407.70	231.79
408.08	232.39
408.45	232.91
408.83	233.47
409.20	233.99
409.58	234.47
409.95	235.12
410.33	235.82
410.70	236.49
411.08	237.27
411.45	238.11
411.82	238.96
412.20	239.93
412.57	241.08
412.95	242.00
413.32	243.18
413.69	244.41
414.07	245.71
414.44	247.12
414.82	248.56
415.19	250.26
415.56	251.98
415.94	253.78
416.31	255.79
416.68	257.80
417.06	260.14
417.43	262.32
417.81	264.83
418.18	267.40
418.55	270.19
418.93	273.10
419.30	276.14
419.67	279.36
420.04	282.67
420.42	286.14
420.79	290.13
421.16	294.16
421.54	298.23
421.91	302.50
422.28	306.93
422.66	311.70
423.03	316.23
423.40	320.99
423.77	326.08
424.15	331.28
424.52	336.69
424.89	342.54
425.26	348.34
425.64	353.72
426.01	359.76
426.38	365.94
426.75	372.30
427.13	378.80
427.50	385.60
427.87	392.67
428.24	399.79
428.61	406.61
428.99	413.96
429.36	422.06
429.73	429.78
430.10	437.49
430.47	445.39
430.85	453.54
431.22	462.20
431.59	471.11
431.96	479.82
432.33	489.50
432.70	498.70
433.08	509.60
433.45	519.88
433.82	530.05
434.19	541.46
434.56	552.69
434.93	563.57
435.30	574.38
435.68	586.62
436.05	598.61
436.42	610.64
436.79	621.63
437.16	633.59
437.53	646.33
437.90	659.09
438.27	671.62
438.64	685.19
439.01	697.54
439.38	708.86
439.75	719.81
440.13	732.31
440.50	744.17
440.87	753.70
441.24	764.17
441.61	775.63
441.98	784.14
442.35	794.23
442.72	804.52
443.09	814.32
443.46	820.74
443.83	825.63
444.20	829.73
444.57	835.57
444.94	839.10
445.31	842.76
445.68	845.95
446.05	848.40
446.42	848.26
446.79	847.83
447.16	847.51
447.53	847.26
447.90	843.72
448.27	840.41
448.64	835.06
449.01	831.42
449.37	823.65
449.74	816.59
450.11	807.43
450.48	797.35
450.85	787.21
451.22	778.54
451.59	769.97
451.96	762.22
452.33	750.98
452.70	740.94
453.07	728.77
453.43	716.60
453.80	704.71
454.17	693.30
454.54	682.80
454.91	670.95
455.28	659.72
455.65	649.12
456.02	637.85
456.38	628.80
456.75	617.22
457.12	607.88
457.49	598.47
457.86	589.55
458.23	581.68
458.59	573.03
458.96	564.15
459.33	556.36
459.70	548.40
460.07	542.34
460.43	535.20
460.80	528.55
461.17	522.77
461.54	516.52
461.91	510.64
462.27	504.66
462.64	499.78
463.01	494.23
463.38	488.62
463.74	483.57
464.11	479.07
464.48	475.00
464.85	470.62
465.21	467.27
465.58	463.54
465.95	459.32
466.32	455.97
466.68	452.70
467.05	449.41
467.42	446.21
467.78	442.78
468.15	439.60
468.52	437.27
468.88	434.16
469.25	431.33
469.62	429.09
469.98	426.68
470.35	424.53
470.72	422.56
471.08	420.59
471.45	418.93
471.82	417.07
472.18	415.12
472.55	413.86
472.92	412.29
473.28	411.06
473.65	409.74
474.02	408.46
474.38	407.37
474.75	406.71
475.11	405.83
475.48	405.40
475.85	404.92
476.21	404.64
476.58	404.44
476.94	404.58
477.31	404.58
477.67	404.61
478.04	404.87
478.41	405.27
478.77	405.85
479.14	406.19
479.50	406.95
479.87	407.94
480.23	408.91
480.60	409.82
480.96	410.72
481.33	412.15
481.69	413.54
482.06	414.90
482.42	416.15
482.79	417.72
483.15	419.58
483.52	421.68
483.88	423.68
484.25	425.80
484.61	428.03
484.98	430.44
485.34	433.16
485.71	435.98
486.07	439.03
486.44	442.01
486.80	445.39
487.17	448.84
487.53	452.59
487.90	456.52
488.26	460.81
488.62	465.34
488.99	469.86
489.35	474.62
489.72	479.74
490.08	485.13
490.44	490.62
490.81	496.32
491.17	502.20
491.54	508.53
491.90	514.98
492.26	521.89
492.63	529.14
492.99	536.73
493.36	544.47
493.72	552.60
494.08	560.97
494.45	569.74
494.81	578.92
495.17	588.33
495.54	598.28
495.90	608.67
496.26	619.24
496.63	630.16
496.99	641.44
497.35	653.25
497.72	665.37
498.08	677.83
498.44	690.65
498.80	704.17
499.17	717.96
499.53	732.22
499.89	746.93
500.26	761.89
500.62	777.20
500.98	793.43
501.34	809.68
501.71	826.70
502.07	844.06
502.43	861.90
502.79	880.01
503.16	898.59
503.52	917.40
503.88	936.64
504.24	956.34
504.60	976.31
504.97	996.93
505.33	1018.08
505.69	1040.32
506.05	1062.80
506.41	1085.28
506.78	1107.91
507.14	1131.06
507.50	1154.74
507.86	1178.80
508.22	1203.08
508.59	1227.25
508.95	1252.46
509.31	1278.26
509.67	1304.72
510.03	1331.17
510.39	1357.46
510.75	1383.86
511.12	1410.55
511.48	1437.64
511.84	1464.65
512.20	1492.03
512.56	1520.55
512.92	1548.88
513.28	1576.50
513.64	1604.59
514.00	1633.06
514.37	1661.82
514.73	1690.67
515.09	1718.83
515.45	1747.21
515.81	1775.95
516.17	1804.43
516.53	1832.21
516.89	1859.66
517.25	1887.41
517.61	1914.94
517.97	1943.16
518.33	1970.89
518.69	1998.57
519.05	2026.53
519.41	2054.68
519.77	2083.00
520.13	2109.68
520.49	2136.31
520.85	2163.40
521.21	2189.83
521.57	2216.60
521.93	2242.20
522.29	2268.54
522.65	2294.70
523.01	2320.58
523.37	2345.65
523.73	2371.51
524.09	2397.05
524.45	2422.44
524.81	2447.20
525.17	2471.83
525.53	2495.46
525.89	2519.55
526.25	2543.36
526.61	2565.37
526.97	2587.44
527.33	2609.14
527.68	2630.86
528.04	2652.20
528.40	2672.43
528.76	2692.64
529.12	2712.29
529.48	2732.76
529.84	2750.41
530.20	2768.34
530.56	2785.64
530.91	2802.98
531.27	2819.60
531.63	2835.34
531.99	2850.60
532.35	2865.66
532.71	2880.34
533.07	2895.53
533.42	2908.70
533.78	2921.92
534.14	2936.37
534.50	2949.67
534.86	2963.54
535.21	2974.93
535.57	2986.24
535.93	2997.10
536.29	3006.27
536.65	3015.30
537.00	3023.02
537.36	3031.90
537.72	3039.95
538.08	3047.56
538.44	3053.79
538.79	3059.91
539.15	3064.77
539.51	3068.86
539.87	3071.62
540.22	3072.60
540.58	3073.88
540.94	3075.73
541.29	3076.68
541.65	3076.10
542.01	3075.14
542.37	3072.43
542.72	3071.56
543.08	3068.83
543.44	3066.22
543.79	3063.56
544.15	3060.05
544.51	3056.33
544.87	3051.75
545.22	3046.11
545.58	3039.95
545.94	3034.28
546.29	3027.09
546.65	3019.96
547.01	3013.03
547.36	3006.73
547.72	3000.59
548.07	2992.63
548.43	2983.55
548.79	2974.04
549.14	2964.80
549.50	2955.71
549.86	2945.75
550.21	2933.93
550.57	2923.49
550.92	2911.40
551.28	2899.36
551.64	2887.68
551.99	2875.86
552.35	2863.54
552.70	2851.17
553.06	2839.34
553.41	2827.01
553.77	2814.32
554.13	2801.72
554.48	2787.95
554.84	2772.88
555.19	2758.28
555.55	2743.71
555.90	2729.70
556.26	2715.91
556.61	2701.03
556.97	2685.00
557.32	2669.38
557.68	2654.22
558.03	2638.61
558.39	2623.88
558.74	2609.97
559.10	2594.14
559.45	2578.18
559.81	2562.88
560.16	2547.14
560.52	2531.09
560.87	2515.41
561.23	2499.25
561.58	2483.69
561.94	2467.76
562.29	2451.40
562.64	2435.26
563.00	2419.10
563.35	2403.17
563.71	2386.81
564.06	2370.62
564.42	2354.96
564.77	2339.45
565.12	2323.54
565.48	2307.27
565.83	2291.09
566.19	2274.78
566.54	2258.66
566.89	2242.19
567.25	2225.80
567.60	2210.31
567.96	2194.27
568.31	2176.61
568.66	2159.70
569.02	2143.48
569.37	2127.80
569.72	2112.69
570.08	2097.15
570.43	2080.95
570.78	2064.51
571.14	2048.06
571.49	2031.55
571.84	2015.26
572.20	1997.71
572.55	1980.90
572.90	1964.28
573.26	1947.87
573.61	1930.78
573.96	1914.22
574.31	1897.53
574.67	1880.41
575.02	1862.93
575.37	1845.43
575.72	1828.87
576.08	1812.17
576.43	1794.47
576.78	1777.12
577.13	1760.00
577.49	1743.06
577.84	1726.69
578.19	1709.89
578.54	1693.00
578.90	1676.01
579.25	1658.83
579.60	1643.02
579.95	1626.88
580.30	1610.71
580.66	1594.21
581.01	1577.84
581.36	1561.49
581.71	1546.08
582.06	1530.74
582.42	1515.22
582.77	1500.08
583.12	1485.17
583.47	1470.36
583.82	1455.73
584.17	1440.46
584.53	1425.35
584.88	1410.57
585.23	1395.63
585.58	1381.10
585.93	1366.41
586.28	1352.80
586.63	1339.09
586.98	1324.80
587.34	1311.00
587.69	1297.01
588.04	1283.31
588.39	1269.87
588.74	1256.13
589.09	1242.46
589.44	1228.45
589.79	1215.16
590.14	1201.89
590.49	1188.64
590.84	1175.60
591.19	1162.98
591.54	1150.56
591.89	1137.73
592.25	1125.22
592.60	1112.57
592.95	1100.07
593.30	1088.08
593.65	1075.72
594.00	1063.70
594.35	1052.59
594.70	1040.76
595.05	1029.56
595.40	1018.27
595.75	1006.81
596.10	995.99
596.45	985.10
596.80	974.73
597.15	964.25
597.50	953.75
597.85	943.66
598.19	933.53
598.54	923.38
598.89	913.73
599.24	904.50
599.59	895.00
599.94	886.25
600.29	877.56
600.64	868.61
600.99	859.56
601.34	850.89
601.69	841.69
602.04	833.44
602.39	825.08
602.74	816.95
603.08	808.94
603.43	800.95
603.78	792.98
604.13	785.01
604.48	777.04
604.83	769.41
605.18	761.75
605.53	754.31
605.87	746.86
606.22	739.53
606.57	732.11
606.92	724.67
607.27	717.25
607.62	709.97
607.96	702.97
608.31	696.53
608.66	689.90
609.01	683.58
609.36	677.23
609.70	670.88
610.05	664.47
610.40	658.28
610.75	652.04
611.10	646.05
611.44	640.05
611.79	634.24
612.14	628.30
612.49	622.44
612.83	616.90
613.18	611.44
613.53	605.97
613.88	600.62
614.22	595.67
614.57	590.64
614.92	585.75
615.27	580.96
615.61	576.03
615.96	571.20
616.31	566.34
616.65	561.63
617.00	557.03
617.35	552.54
617.70	548.06
618.04	543.69
618.39	539.42
618.74	535.44
619.08	531.39
619.43	527.49
619.78	523.56
620.12	519.57
620.47	515.78
620.82	512.11
621.16	508.47
621.51	504.87
621.85	501.28
622.20	497.72
622.55	494.20
622.89	490.72
623.24	487.42
623.59	484.18
623.93	481.02
624.28	477.98
624.62	475.15
624.97	472.35
625.32	469.46
625.66	466.57
626.01	463.61
626.35	460.84
626.70	458.00
627.04	455.38
627.39	452.73
627.73	450.16
628.08	447.61
628.43	445.09
628.77	442.50
629.12	440.02
629.46	437.66
629.81	435.44
630.15	433.13
630.50	430.86
630.84	428.64
631.19	426.46
631.53	424.38
631.88	422.12
632.22	419.94
632.57	418.08
632.91	416.16
633.26	414.31
633.60	412.48
633.95	410.75
634.29	408.88
634.64	407.06
634.98	405.15
635.32	403.43
635.67	401.87
636.01	400.31
636.36	398.80
636.70	397.35
637.05	395.75
637.39	394.31
637.73	392.86
638.08	391.48
638.42	390.15
638.77	388.68
639.11	387.18
639.45	385.74
639.80	384.25
640.14	382.83
640.49	381.42
640.83	380.00
641.17	378.66
641.52	377.34
641.86	376.06
642.20	374.93
642.55	373.61
642.89	372.32
643.23	371.09
643.58	370.00
643.92	368.75
644.26	367.60
644.61	366.48
644.95	365.33
645.29	364.13
645.64	362.91
645.98	361.81
646.32	360.83
646.66	359.78
647.01	358.75
647.35	357.83
647.69	356.86
648.04	355.97
648.38	355.01
648.72	354.10
649.06	353.18
649.41	352.24
649.75	351.36
650.09	350.49
650.43	349.62
650.78	348.69
651.12	347.83
651.46	346.99
651.80	346.17
652.14	345.39
652.49	344.68
652.83	343.90
653.17	343.09
653.51	342.30
653.85	341.64
654.20	340.93
654.54	340.12
654.88	339.36
655.22	338.65
655.56	337.91
655.90	337.22
656.25	336.54
656.59	335.87
656.93	335.24
657.27	334.68
657.61	334.02
657.95	333.43
658.29	332.81
658.64	332.21
658.98	331.55
659.32	330.91
659.66	330.30
660.00	329.74
660.34	329.19
660.68	328.57
661.02	327.90
661.36	327.27
661.70	326.69
662.05	326.12
662.39	325.57
662.73	325.11
663.07	324.69
663.41	324.22
663.75	323.69
664.09	323.18
664.43	322.55
664.77	322.02
665.11	321.44
665.45	320.93
665.79	320.43
666.13	319.91
666.47	319.38
666.81	318.82
667.15	318.22
667.49	317.75
667.83	317.34
668.17	316.89
668.51	316.48
668.85	316.10
669.19	315.76
669.53	315.25
669.87	314.70
670.21	314.15
670.55	313.63
670.89	313.23
671.23	312.78
671.57	312.37
671.91	312.03
672.25	311.70
672.58	311.37
672.92	310.94
673.26	310.61
673.60	310.27
673.94	309.90
674.28	309.58
674.62	309.22
674.96	308.79
675.30	308.43
675.64	308.01
675.97	307.56
676.31	307.08
676.65	306.67
676.99	306.36
677.33	305.93
677.67	305.55
678.01	305.07
678.34	304.67
678.68	304.30
679.02	303.85
679.36	303.41
679.70	302.96
680.04	302.56
680.37	302.15
680.71	301.76
681.05	301.40
681.39	301.00
681.73	300.55
682.06	300.13
682.40	299.74
682.74	299.39
683.08	299.09
683.42	298.71
683.75	298.37
684.09	297.91
684.43	297.55
684.77	297.14
685.10	296.77
685.44	296.37
685.78	295.95
686.12	295.57
686.45	295.15
686.79	294.72
687.13	294.32
687.46	293.88
687.80	293.47
688.14	293.00
688.48	292.58
688.81	292.16
689.15	291.79
689.49	291.35
689.82	290.92
690.16	290.37
690.50	289.93
690.83	289.47
691.17	289.02
691.51	288.58
691.84	288.18
692.18	287.74
692.52	287.28
692.85	286.85
693.19	286.46
693.52	286.04
693.86	285.59
694.20	285.16
694.53	284.74
694.87	284.27
695.21	283.81
695.54	283.36
695.88	282.90
696.21	282.41
696.55	281.96
696.88	281.50
697.22	281.08
697.56	280.67
697.89	280.20
698.23	279.78
698.56	279.33
698.90	278.92
699.23	278.47
699.57	278.06
699.90	277.63
700.24	277.16
700.58	276.75
700.91	276.38
701.25	276.12
701.58	275.80
701.92	275.45
702.25	275.07
702.59	274.66
702.92	274.27
703.26	273.85
703.59	273.44
703.93	273.17
704.26	272.77
704.60	272.35
704.93	271.94
705.26	271.53
705.60	271.17
705.93	270.71
706.27	270.39
706.60	270.04
706.94	269.71
707.27	269.28
707.61	268.88
707.94	268.45
708.27	267.89
708.61	267.41
708.94	266.98
709.28	266.58
709.61	266.20
709.94	265.84
710.28	265.49
710.61	265.16
710.95	264.63
711.28	264.39
711.61	264.02
711.95	263.71
712.28	263.33
712.61	262.95
712.95	262.70
713.28	262.41
713.61	262.01
713.95	261.61
714.28	261.29
714.61	260.92
714.95	260.59
715.28	260.24
715.61	259.92
715.95	259.62
716.28	259.29
716.61	259.00
716.95	258.66
717.28	258.35
717.61	258.02
717.94	257.73
718.28	257.31
718.61	257.00
718.94	256.66
719.27	256.38
719.61	256.11
719.94	255.78
720.27	255.39
720.60	255.12
720.94	254.83
721.27	254.56
721.60	254.32
721.93	254.04
722.27	253.81
722.60	253.55
722.93	253.23
723.26	252.99
723.59	252.68
723.93	252.44
724.26	252.19
724.59	251.93
724.92	251.69
725.25	251.49
725.59	251.24
725.92	251.02
726.25	250.78
726.58	250.53
726.91	250.28
727.24	250.06
727.57	249.81
727.91	249.54
728.24	249.33
728.57	249.08
728.90	248.87
729.23	248.58
729.56	248.45
729.89	248.23
730.22	248.00
730.55	247.79
730.89	247.57
731.22	247.34
731.55	247.13
731.88	246.92
732.21	246.68
732.54	246.46
732.87	246.25
733.20	246.07
733.53	245.87
733.86	245.70
734.19	245.48
734.52	245.33
734.85	245.28
735.18	245.07
735.51	244.94
735.84	244.76
736.17	244.63
736.50	244.35
736.83	244.39
737.16	244.21
737.49	244.05
737.82	243.85
738.15	243.70
738.48	243.52
738.81	243.33
739.14	243.14
739.47	242.96
739.80	242.77
740.13	242.61
740.46	242.42
740.79	242.21
741.12	242.03
741.45	241.82
741.78	241.54
742.11	241.42
742.44	241.20
742.77	241.06
743.10	240.86
743.43	240.69
743.75	240.34
744.08	240.46
744.41	240.28
744.74	240.12
745.07	239.93
745.40	239.83
745.73	239.75
746.06	239.62
746.39	239.51
746.71	239.35
747.04	239.19
747.37	239.04
747.70	238.93
748.03	238.80
748.36	238.70
748.68	238.57
749.01	238.38
749.34	238.26
749.67	238.13
750.00	238.03
750.33	238.04
750.65	237.92
750.98	237.53
751.31	237.42
751.64	237.31
751.97	237.29
752.29	237.14
752.62	236.93
752.95	236.80
753.28	236.65
753.60	236.52
753.93	236.45
754.26	236.35
754.59	236.18
754.91	236.05
755.24	235.91
755.57	235.80
755.90	235.68
756.22	235.54
756.55	235.40
756.88	235.25
757.20	235.01
757.53	234.85
757.86	234.74
758.19	234.64
758.51	234.53
758.84	234.33
759.17	234.21
759.49	234.12
759.82	234.11
760.15	234.03
760.47	233.93
760.80	233.78
761.13	233.71
761.45	233.62
761.78	233.53
762.11	233.44
762.43	233.32
762.76	233.23
763.08	233.16
763.41	233.10
763.74	233.03
764.06	232.94
764.39	232.86
764.71	232.77
765.04	232.67
765.37	232.58
765.69	232.50
766.02	232.41
766.34	232.32
766.67	232.17
767.00	232.13
767.32	232.15
767.65	232.20
767.97	232.11
768.30	232.05
768.62	231.98
768.95	231.88
769.27	231.81
769.60	231.77
769.92	231.67
770.25	231.57
770.57	231.47
770.90	231.40
771.22	231.32
771.55	231.27
771.87	231.23
772.20	231.16
772.52	231.26
772.85	231.42
773.17	231.37
773.50	231.30
773.82	231.20
774.15	231.06
774.47	230.89
774.80	230.81
775.12	230.76
775.45	230.70
775.77	230.66
776.09	230.63
776.42	230.57
776.74	230.58
777.07	230.53
777.39	230.49
777.72	230.43
778.04	230.41
778.36	230.35
778.69	230.30
779.01	230.27
779.33	230.07
779.66	229.82
779.98	229.76
780.31	229.74
780.63	229.77
780.95	229.76
781.28	229.72
781.60	229.66
781.92	229.62
782.25	229.58
782.57	229.54
782.89	229.49
783.22	229.44
783.54	229.36
783.86	229.34
784.19	229.29
784.51	229.32
784.83	229.26
785.16	229.22
785.48	229.19
785.80	229.15
786.12	229.13
786.45	229.10
786.77	229.08
787.09	229.03
787.42	228.93
787.74	228.90
788.06	228.88
788.38	228.85
788.71	228.81
789.03	228.78
789.35	228.78
789.67	228.73
789.99	228.72
790.32	228.67
790.64	228.66
790.96	228.81
791.28	228.71
791.61	228.68
791.93	228.66
792.25	228.62
792.57	228.72
792.89	228.66
793.21	228.64
793.54	228.60
793.86	228.56
794.18	228.54
794.50	228.48
794.82	228.45
795.14	228.45
795.47	228.46
795.79	228.44
796.11	228.37
796.43	228.34
796.75	228.31
797.07	228.30
797.39	228.25
797.71	228.07
798.04	228.06
798.36	228.05
798.68	228.02
799.00	228.02
799.32	227.90
799.64	227.92
799.96	227.89
800.28	227.91
800.60	227.88
800.92	227.88
801.24	227.85
801.56	227.84
801.89	227.81
802.21	227.79
802.53	227.74
802.85	227.76
803.17	227.83
803.49	227.77
803.81	227.74
804.13	227.71
804.45	227.67
804.77	227.66
805.09	227.64
805.41	227.61
805.73	227.56
806.05	227.49
806.37	227.46
806.69	227.42
807.01	227.39
807.33	227.38
807.65	227.30
807.97	227.36
808.28	227.32
808.60	227.30
808.92	227.26
809.24	227.36
809.56	227.31
809.88	227.22
810.20	227.22
810.52	227.25
810.84	227.21
811.16	227.18
811.48	227.15
811.80	227.20
812.12	227.18
812.43	227.21
812.75	227.21
813.07	227.17
813.39	227.17
813.71	227.13
814.03	227.10
814.35	227.10
814.67	227.01
814.98	226.99
815.30	226.97
815.62	226.93
815.94	226.79
816.26	226.80
816.58	226.75
816.89	226.75
817.21	226.69
817.53	226.69
817.85	226.69
818.17	226.68
818.48	226.59
818.80	226.61
819.12	226.57
819.44	226.53
819.76	226.50
820.07	226.48
820.39	226.47
820.71	226.47
821.03	226.46
821.34	226.44
821.66	226.45
821.98	226.46
822.30	226.45
822.61	226.56
822.93	226.52
823.25	226.51
823.57	226.48
823.88	226.50
824.20	226.48
824.52	226.50
824.83	226.48
825.15	226.46
825.47	226.43
825.79	226.44
826.10	226.42
826.42	226.41
826.74	226.42
827.05	226.41
827.37	226.40
827.69	226.39
828.00	226.39
828.32	226.37
828.64	226.34
828.95	226.43
829.27	226.36
829.58	226.36
829.90	226.37
830.22	226.38
830.53	226.34
830.85	226.31
831.17	226.26
831.48	226.25
831.80	226.26
832.11	226.24
832.43	226.21
832.75	226.20
833.06	226.30
833.38	226.24
833.69	226.23
834.01	226.23
834.32	226.22
834.64	226.20
834.96	226.19
835.27	226.19
835.59	226.12
835.90	226.08
836.22	226.08
836.53	226.04
836.85	226.01
837.16	226.19
837.48	226.19
837.79	226.24
838.11	226.24
838.42	226.23
838.74	226.25
839.05	226.23
839.37	226.22
839.68	226.10
840.00	226.10
840.31	226.12
840.63	226.09
840.94	226.08
841.26	226.06
841.57	226.05
841.88	226.05
842.20	226.02
842.51	225.99
842.83	225.99
843.14	226.15
843.46	226.14
843.77	226.03
844.08	226.02
844.40	225.96
844.71	225.94
845.03	225.92
845.34	225.90
845.65	225.89
845.97	225.89
846.28	225.90
846.60	225.91
846.91	225.88
847.22	225.87
847.54	225.91
847.85	225.92
848.16	225.90
848.48	225.86
848.79	225.93
849.10	225.95
849.42	225.96
849.73	225.79
850.04	225.79
850.36	225.72
850.67	225.75
850.98	225.75
851.30	225.76
851.61	225.76
851.92	225.76
852.23	225.81
852.55	225.82
852.86	225.81
853.17	225.83
853.49	225.86
853.80	225.89
854.11	225.90
854.42	225.92
854.74	225.90
855.05	225.91
855.36	225.81
855.67	225.81
855.99	225.80
856.30	226.02
856.61	226.01
856.92	226.02
857.23	226.02
857.55	226.00
857.86	225.98
858.17	226.00
858.48	225.97
858.79	225.93
859.11	225.94
859.42	225.92
859.73	225.90
860.04	225.88
860.35	225.83
860.66	225.77
860.98	225.75
861.29	225.78
861.60	225.76
861.91	225.80
862.22	225.77
862.53	225.74
862.84	225.52
863.16	225.56
863.47	225.51
863.78	225.49
864.09	225.50
864.40	225.51
864.71	225.51
865.02	225.53
865.33	225.51
865.64	225.48
865.95	225.47
866.27	225.59
866.58	225.56
866.89	225.59
867.20	225.59
867.51	225.56
867.82	225.55
868.13	225.60
868.44	225.56
868.75	225.59
869.06	225.61
869.37	225.62
869.68	225.57
869.99	225.60
870.30	225.61
870.61	225.62
870.92	225.59
871.23	225.57
871.54	225.59
871.85	225.64
872.16	225.66
872.47	225.64
872.78	225.54
873.09	225.55
873.40	225.53
873.71	225.55
874.02	225.56
874.33	225.54
874.64	225.49
874.95	225.53
875.26	225.48
875.56	225.48
875.87	225.46
876.18	225.46
876.49	225.64
876.80	225.62
877.11	225.59
877.42	225.60
877.73	225.61
878.04	225.57
878.35	225.56
878.66	225.57
878.96	225.56
879.27	225.56
879.58	225.54
879.89	225.53
880.20	225.58
880.51	225.57
880.82	225.58
881.12	225.58
881.43	225.54
881.74	225.53
882.05	225.52
882.36	225.52
882.67	225.54
882.97	225.34
883.28	225.33
883.59	225.32
883.90	225.34
884.21	225.36
884.51	225.35
884.82	225.32
885.13	225.32
885.44	225.31
885.74	225.31
886.05	225.31
886.36	225.31
886.67	225.24
886.98	225.33
887.28	225.35
887.59	225.35
887.90	225.36
888.20	225.35
888.51	225.39
888.82	225.36
889.13	225.37
889.43	225.53
889.74	225.52
890.05	225.51
890.35	225.49
890.66	225.46
890.97	225.45
891.28	225.43
891.58	225.43
891.89	225.43
892.20	225.41
892.50	225.39
892.81	225.39
893.12	225.38
893.42	225.29
893.73	225.29
894.04	225.29
894.34	225.30
894.65	225.30
894.95	225.28
895.26	225.29
895.57	225.37
895.87	225.19
896.18	225.22
896.48	225.23
896.79	225.23
897.10	225.26
897.40	225.27
897.71	225.29
898.01	225.28
898.32	225.29
898.63	225.29
898.93	225.31
899.24	225.32
899.54	225.31
899.85	225.30
900.15	225.29
900.46	225.29
900.76	225.30
901.07	225.29
901.38	225.29
901.68	225.31
901.99	225.21
902.29	225.23
902.60	225.21
902.90	225.20
903.21	225.19
903.51	225.17
903.82	225.21
904.12	225.21
904.43	225.22
904.73	225.21
905.03	225.22
905.34	225.39
905.64	225.38
905.95	225.38
906.25	225.38
906.56	225.37
906.86	225.37
907.17	225.35
907.47	225.37
907.77	225.35
908.08	225.31
908.38	225.32
908.69	225.33
908.99	225.36
909.30	225.37
909.60	225.37
909.90	225.37
910.21	225.31
910.51	225.29
910.81	225.28
911.12	225.29
911.42	225.29
911.73	225.10
912.03	225.12
912.33	225.15
912.64	225.14
912.94	225.13
913.24	225.10
913.55	225.08
913.85	225.07
914.15	225.11
914.46	225.13
914.76	225.11
915.06	225.10
915.37	225.06
915.67	225.05
915.97	225.05
916.27	225.02
916.58	225.04
916.88	225.03
917.18	225.02
917.49	225.14
917.79	225.13
918.09	225.16
918.39	225.20
918.70	225.19
919.00	225.20
919.30	225.29
919.60	225.29
919.91	225.27
920.21	225.28
920.51	225.24
920.81	225.22
921.12	225.25
921.42	225.25
921.72	225.26
922.02	225.27
922.32	225.30
922.63	225.31
922.93	225.40
923.23	225.41
923.53	225.40
923.83	225.27
924.13	225.29
924.44	225.29
924.74	225.31
925.04	225.35
925.34	225.34
925.64	225.27
925.94	225.27
926.24	225.38
926.55	225.36
926.85	225.39
927.15	225.39
927.45	225.38
927.75	225.38
928.05	225.39
928.35	225.37
928.65	225.40
928.95	225.41
929.26	225.32
929.56	225.36
929.86	225.38
930.16	225.37
930.46	225.35
930.76	225.36
931.06	225.27
931.36	225.22
931.66	225.24
931.96	225.26
932.26	225.27
932.56	225.19
932.86	225.21
933.16	225.20
933.46	225.18
933.76	225.16
934.06	225.19
934.36	225.25
934.66	225.25
934.96	225.22
935.26	225.22
935.56	225.25
935.86	225.20
936.16	225.17
936.46	225.16
936.76	225.15
937.06	225.13
937.36	225.15
937.66	225.15
937.96	225.14
938.26	225.10
938.56	225.09
938.86	225.10
939.16	225.13
939.46	225.15
939.76	225.16
940.06	225.16
940.35	225.13
940.65	225.03
940.95	225.05
941.25	225.00
941.55	224.98
941.85	224.96
942.15	225.00
942.45	225.05
942.75	225.04
943.04	225.05
943.34	225.09
943.64	225.07
943.94	225.05
944.24	225.04
944.54	225.06
944.84	225.05
945.13	225.03
945.43	225.00
945.73	224.98
946.03	224.96
946.33	224.95
946.62	224.93
946.92	224.94
947.22	224.95
947.52	224.97
947.82	225.00
948.11	224.98
948.41	224.93
948.71	224.88
949.01	224.89
949.31	224.88
949.60	224.86
949.90	224.89
950.20	224.88
950.50	224.88
950.79	224.86
951.09	224.89
951.39	224.89
951.69	224.88
951.98	224.91
952.28	224.92
952.58	224.92
952.87	224.92
953.17	224.94
953.47	224.92
953.76	224.91
954.06	224.88
954.36	224.85
954.66	224.85
954.95	224.90
955.25	224.91
955.55	224.93
955.84	224.91
956.14	224.92
956.44	224.93
956.73	224.90
957.03	224.92
957.32	224.91
957.62	224.90
957.92	224.93
958.21	224.91
958.51	225.12
958.81	225.15
959.10	225.17
959.40	225.21
959.69	225.23
959.99	225.25
960.29	225.26
960.58	225.26
960.88	225.33
961.17	225.31
961.47	225.32
961.76	225.30
962.06	225.33
962.36	225.31
962.65	225.32
962.95	225.33
963.24	225.31
963.54	225.32
963.83	225.33
964.13	225.32
964.42	225.30
964.72	225.15
965.01	225.14
965.31	225.13
965.60	225.08
965.90	225.19
966.19	225.15
966.49	225.17
966.78	225.16
967.08	225.14
967.37	225.15
967.67	225.11
967.96	225.15
968.26	225.14
968.55	225.17
968.85	225.16
969.14	225.16
969.43	225.16
969.73	225.14
970.02	225.13
970.32	225.12
970.61	225.09
970.91	225.04
971.20	225.02
971.49	225.00
971.79	225.03
972.08	224.89
972.38	224.91
972.67	224.89
972.96	224.92
973.26	224.88
973.55	224.94
973.85	224.93
974.14	224.91
974.43	224.92
974.73	224.89
975.02	224.87
975.31	224.87
975.61	224.87
975.90	224.86
976.19	224.85
976.49	224.86
976.78	224.88
977.07	224.87
977.37	224.89
977.66	224.91
977.95	224.88
978.24	224.90
978.54	224.93
978.83	224.92
979.12	224.91
979.42	224.91
979.71	224.87
980.00	224.87
980.29	224.88
980.59	224.85
980.88	224.90
981.17	224.90
981.46	224.90
981.76	224.90
982.05	224.96
982.34	224.97
982.63	224.97
982.93	224.97
983.22	225.01
983.51	225.02
983.80	225.05
984.09	225.07
984.39	225.05
984.68	225.03
984.97	225.04
985.26	225.03
985.55	225.04
985.85	225.01
986.14	225.03
986.43	225.05
986.72	225.05
987.01	224.98
987.30	224.99
987.59	224.97
987.89	224.98
988.18	224.92
988.47	224.90
988.76	224.89
989.05	224.87
989.34	224.84
989.63	224.89
989.92	224.86
990.22	224.83
990.51	224.83
990.80	224.81
991.09	224.82
991.38	224.85
991.67	224.82
991.96	224.82
992.25	224.82
992.54	224.79
992.83	224.79
993.12	224.79
993.41	224.82
993.70	224.90
993.99	224.93
994.28	224.96
994.58	224.99
994.87	224.97
995.16	224.97
995.45	224.96
995.74	224.90
996.03	224.92
996.32	224.95
996.61	224.99
996.90	225.00
997.19	224.99
997.48	224.98
997.77	224.97
998.06	224.98
998.34	224.96
998.63	224.96
998.92	224.97
999.21	225.01
999.50	225.01
999.79	224.94
1000.08	224.93
1000.37	224.93
1000.66	224.90
1000.95	224.95
1001.24	224.96
1001.53	224.99
1001.82	224.98
1002.11	224.95
1002.40	224.96
1002.68	225.00
1002.97	225.13
1003.26	225.10
1003.55	225.08
1003.84	225.10
1004.13	225.16
1004.42	225.15
1004.71	225.16
1004.99	225.15
1005.28	225.18
1005.57	225.16
1005.86	225.15
1006.15	225.14
1006.44	225.10
1006.72	225.13
1007.01	225.09
1007.30	225.09
1007.59	225.07
1007.88	225.07
1008.17	225.08
1008.45	225.04
1008.74	224.96
1009.03	224.87
1009.32	224.88
1009.60	224.88
1009.89	224.86
1010.18	224.78
1010.47	224.78
1010.76	224.77
1011.04	224.76
1011.33	224.76
1011.62	224.77
1011.91	224.78
1012.19	224.79
1012.48	224.80
1012.77	224.79
1013.05	224.86
1013.34	224.86
1013.63	224.85
1013.92	224.86
1014.20	224.84
1014.49	224.86
1014.78	224.87
1015.06	224.81
1015.35	224.82
1015.64	224.84
1015.92	224.86
1016.21	224.88
1016.50	224.88
1016.78	224.90
1017.07	224.92
1017.36	224.89
1017.64	224.86
1017.93	224.87
1018.22	224.86
1018.50	224.85
1018.79	224.85
1019.08	224.78
1019.36	224.79
1019.65	224.78
1019.93	224.83
1020.22	224.86
1020.51	224.95
1020.79	224.93
1021.08	224.63
1021.36	224.53
1021.65	224.90
1021.94	224.74
1022.22	224.99
1022.51	224.54
1022.79	225.68
1023.08	225.13
1023.36	227.03
1023.65	224.43
>>>>>End Processed Spectral Data<<<<<
