SpectraSuite Data File
++++++++++++++++++++++++++++++++++++
Date: Tue Oct 06 15:24:25 EDT 2015
User: lab3
Dark Spectrum Present: No
Reference Spectrum Present: No
Number of Sampled Component Spectra: 1
Spectrometers: USB2E7196
Integration Time (usec): 66000 (USB2E7196)
Spectra Averaged: 1000 (USB2E7196)
Boxcar Smoothing: 10 (USB2E7196)
Correct for Electrical Dark: No (USB2E7196)
Strobe/Lamp Enabled: No (USB2E7196)
Correct for Detector Non-linearity: No (USB2E7196)
Correct for Stray Light: No (USB2E7196)
Number of Pixels in Processed Spectrum: 2048
>>>>>Begin Processed Spectral Data<<<<<
339.09	0.00
339.48	214.76
339.86	216.32
340.24	217.78
340.63	219.07
341.01	223.21
341.39	221.93
341.78	223.22
342.16	224.59
342.54	224.84
342.93	213.36
343.31	224.13
343.69	224.68
344.07	225.15
344.46	225.59
344.84	226.00
345.22	226.21
345.60	226.48
345.99	226.70
346.37	226.85
346.75	226.98
347.13	227.08
347.52	227.16
347.90	227.29
348.28	227.34
348.66	227.43
349.05	227.42
349.43	227.50
349.81	227.57
350.19	227.64
350.57	227.72
350.96	227.83
351.34	227.95
351.72	228.06
352.10	228.19
352.48	228.26
352.87	228.31
353.25	228.37
353.63	228.43
354.01	228.49
354.39	228.57
354.77	228.64
355.15	228.76
355.54	228.81
355.92	228.83
356.30	228.91
356.68	229.09
357.06	229.19
357.44	229.22
357.82	229.28
358.20	229.50
358.58	229.55
358.97	229.62
359.35	229.71
359.73	229.80
360.11	229.85
360.49	229.91
360.87	229.97
361.25	230.04
361.63	230.14
362.01	230.20
362.39	230.22
362.77	230.28
363.15	230.30
363.53	230.33
363.91	230.37
364.29	230.39
364.67	230.24
365.05	230.26
365.43	230.30
365.81	230.33
366.19	230.28
366.57	230.36
366.95	230.36
367.33	230.31
367.71	230.31
368.09	230.34
368.47	230.32
368.85	230.31
369.23	230.33
369.61	230.25
369.99	230.29
370.37	230.29
370.75	230.41
371.13	230.36
371.51	230.32
371.89	230.31
372.27	230.30
372.65	230.28
373.03	230.25
373.41	230.20
373.78	230.15
374.16	230.03
374.54	229.94
374.92	229.89
375.30	229.85
375.68	229.76
376.06	229.72
376.44	229.68
376.82	229.65
377.19	229.60
377.57	229.56
377.95	229.45
378.33	229.39
378.71	229.19
379.09	229.15
379.47	229.11
379.84	229.04
380.22	228.97
380.60	228.88
380.98	228.82
381.36	228.76
381.73	228.70
382.11	228.69
382.49	228.64
382.87	228.57
383.25	228.52
383.62	228.71
384.00	228.63
384.38	228.60
384.76	228.61
385.13	228.62
385.51	228.58
385.89	228.52
386.27	228.50
386.64	228.49
387.02	228.44
387.40	228.40
387.78	228.37
388.15	228.35
388.53	228.34
388.91	228.31
389.29	228.27
389.66	228.29
390.04	228.25
390.42	228.27
390.79	228.26
391.17	228.25
391.55	228.04
391.92	228.03
392.30	228.04
392.68	227.98
393.05	227.96
393.43	227.97
393.81	227.99
394.18	227.97
394.56	227.98
394.94	228.04
395.31	228.04
395.69	228.12
396.06	228.18
396.44	228.22
396.82	228.25
397.19	228.40
397.57	228.42
397.95	228.49
398.32	228.47
398.70	228.54
399.07	228.63
399.45	228.68
399.82	228.74
400.20	228.80
400.58	228.89
400.95	228.91
401.33	229.04
401.70	229.27
402.08	229.43
402.45	229.55
402.83	229.71
403.20	229.88
403.58	230.01
403.95	230.22
404.33	230.43
404.71	230.64
405.08	230.93
405.46	231.17
405.83	231.45
406.21	231.75
406.58	232.09
406.96	232.42
407.33	232.80
407.70	233.23
408.08	233.80
408.45	234.30
408.83	234.85
409.20	235.34
409.58	235.78
409.95	236.40
410.33	237.07
410.70	237.72
411.08	238.47
411.45	239.28
411.82	240.09
412.20	241.02
412.57	242.12
412.95	243.01
413.32	244.15
413.69	245.32
414.07	246.57
414.44	247.93
414.82	249.33
415.19	250.96
415.56	252.63
415.94	254.36
416.31	256.32
416.68	258.28
417.06	260.55
417.43	262.68
417.81	265.11
418.18	267.60
418.55	270.30
418.93	273.13
419.30	276.09
419.67	279.22
420.04	282.44
420.42	285.81
420.79	289.68
421.16	293.62
421.54	297.60
421.91	301.77
422.28	306.10
422.66	310.76
423.03	315.20
423.40	319.85
423.77	324.84
424.15	329.93
424.52	335.20
424.89	340.92
425.26	346.61
425.64	351.88
426.01	357.81
426.38	363.87
426.75	370.10
427.13	376.45
427.50	383.11
427.87	390.02
428.24	397.00
428.61	403.70
428.99	410.90
429.36	418.82
429.73	426.38
430.10	433.89
430.47	441.58
430.85	449.57
431.22	458.07
431.59	466.78
431.96	475.27
432.33	484.71
432.70	493.70
433.08	504.33
433.45	514.36
433.82	524.23
434.19	535.29
434.56	546.19
434.93	556.79
435.30	567.30
435.68	579.24
436.05	590.90
436.42	602.54
436.79	613.21
437.16	624.77
437.53	637.14
437.90	649.56
438.27	661.71
438.64	674.83
439.01	686.73
439.38	697.65
439.75	708.25
440.13	720.32
440.50	731.82
440.87	740.99
441.24	751.08
441.61	762.13
441.98	770.32
442.35	780.03
442.72	789.92
443.09	799.26
443.46	805.38
443.83	810.04
444.20	813.92
444.57	819.51
444.94	822.85
445.31	826.24
445.68	829.17
446.05	831.40
446.42	831.12
446.79	830.61
447.16	830.20
447.53	829.81
447.90	826.26
448.27	822.83
448.64	817.45
449.01	813.74
449.37	806.12
449.74	799.18
450.11	790.23
450.48	780.38
450.85	770.57
451.22	762.05
451.59	753.68
451.96	746.14
452.33	735.16
452.70	725.42
453.07	713.62
453.43	701.86
453.80	690.37
454.17	679.35
454.54	669.15
454.91	657.65
455.28	646.83
455.65	636.60
456.02	625.79
456.38	617.13
456.75	606.01
457.12	597.00
457.49	587.93
457.86	579.33
458.23	571.75
458.59	563.38
458.96	554.86
459.33	547.37
459.70	539.69
460.07	533.88
460.43	526.99
460.80	520.56
461.17	514.93
461.54	508.86
461.91	503.18
462.27	497.42
462.64	492.70
463.01	487.32
463.38	481.89
463.74	476.98
464.11	472.62
464.48	468.69
464.85	464.47
465.21	461.24
465.58	457.64
465.95	453.56
466.32	450.31
466.68	447.10
467.05	443.85
467.42	440.73
467.78	437.37
468.15	434.29
468.52	432.04
468.88	429.04
469.25	426.31
469.62	424.15
469.98	421.79
470.35	419.68
470.72	417.76
471.08	415.82
471.45	414.21
471.82	412.40
472.18	410.51
472.55	409.25
472.92	407.70
473.28	406.50
473.65	405.19
474.02	403.96
474.38	402.93
474.75	402.31
475.11	401.47
475.48	401.05
475.85	400.62
476.21	400.36
476.58	400.19
476.94	400.38
477.31	400.42
477.67	400.51
478.04	400.82
478.41	401.28
478.77	401.92
479.14	402.31
479.50	403.09
479.87	404.09
480.23	405.10
480.60	406.05
480.96	407.01
481.33	408.47
481.69	409.90
482.06	411.30
482.42	412.60
482.79	414.23
483.15	416.13
483.52	418.25
483.88	420.28
484.25	422.41
484.61	424.67
484.98	427.10
485.34	429.83
485.71	432.67
486.07	435.69
486.44	438.70
486.80	442.10
487.17	445.58
487.53	449.33
487.90	453.28
488.26	457.58
488.62	462.10
488.99	466.61
489.35	471.34
489.72	476.44
490.08	481.81
490.44	487.27
490.81	492.97
491.17	498.83
491.54	505.11
491.90	511.54
492.26	518.39
492.63	525.57
492.99	533.07
493.36	540.75
493.72	548.83
494.08	557.08
494.45	565.69
494.81	574.68
495.17	583.97
495.54	593.72
495.90	603.90
496.26	614.28
496.63	624.94
496.99	635.99
497.35	647.55
497.72	659.37
498.08	671.56
498.44	684.04
498.80	697.22
499.17	710.69
499.53	724.59
499.89	738.94
500.26	753.45
500.62	768.30
500.98	783.99
501.34	799.70
501.71	816.19
502.07	832.98
502.43	850.21
502.79	867.60
503.16	885.53
503.52	903.64
503.88	922.15
504.24	941.12
504.60	960.33
504.97	980.10
505.33	1000.33
505.69	1021.59
506.05	1042.97
506.41	1064.28
506.78	1085.71
507.14	1107.77
507.50	1130.27
507.86	1153.12
508.22	1176.18
508.59	1198.99
508.95	1222.86
509.31	1247.18
509.67	1272.10
510.03	1296.95
510.39	1321.71
510.75	1346.57
511.12	1371.75
511.48	1397.02
511.84	1422.27
512.20	1447.73
512.56	1474.16
512.92	1500.45
513.28	1526.09
513.64	1552.14
514.00	1578.48
514.37	1605.10
514.73	1631.64
515.09	1657.47
515.45	1683.58
515.81	1709.82
516.17	1735.78
516.53	1761.04
516.89	1786.17
517.25	1811.55
517.61	1836.73
517.97	1862.50
518.33	1887.49
518.69	1912.38
519.05	1937.63
519.41	1963.01
519.77	1988.31
520.13	2012.29
520.49	2036.32
520.85	2060.68
521.21	2084.39
521.57	2108.41
521.93	2131.32
522.29	2154.92
522.65	2178.21
523.01	2201.30
523.37	2223.82
523.73	2246.96
524.09	2269.74
524.45	2292.11
524.81	2313.84
525.17	2335.26
525.53	2356.00
525.89	2377.23
526.25	2397.95
526.61	2417.24
526.97	2436.38
527.33	2455.49
527.68	2474.08
528.04	2492.24
528.40	2509.12
528.76	2526.31
529.12	2542.94
529.48	2560.18
529.84	2574.84
530.20	2589.95
530.56	2604.08
530.91	2618.28
531.27	2631.88
531.63	2644.69
531.99	2657.13
532.35	2669.20
532.71	2680.79
533.07	2692.70
533.42	2702.71
533.78	2713.05
534.14	2724.18
534.50	2734.28
534.86	2744.88
535.21	2753.55
535.57	2761.94
535.93	2770.28
536.29	2777.04
536.65	2783.53
537.00	2788.40
537.36	2794.40
537.72	2799.46
538.08	2804.04
538.44	2807.43
538.79	2810.79
539.15	2812.84
539.51	2814.42
539.87	2814.94
540.22	2813.83
540.58	2812.85
540.94	2812.76
541.29	2811.57
541.65	2808.95
542.01	2805.96
542.37	2801.40
542.72	2798.42
543.08	2793.98
543.44	2789.64
543.79	2784.57
544.15	2778.91
544.51	2773.71
544.87	2767.35
545.22	2760.18
545.58	2752.77
545.94	2745.74
546.29	2737.33
546.65	2729.03
547.01	2720.60
547.36	2712.59
547.72	2704.80
548.07	2695.48
548.43	2685.06
548.79	2674.36
549.14	2664.02
549.50	2653.98
549.86	2643.08
550.21	2630.53
550.57	2618.98
550.92	2605.71
551.28	2593.05
551.64	2580.69
551.99	2567.99
552.35	2555.09
552.70	2541.99
553.06	2529.48
553.41	2516.55
553.77	2503.11
554.13	2489.90
554.48	2475.73
554.84	2460.66
555.19	2446.46
555.55	2432.04
555.90	2417.90
556.26	2404.21
556.61	2389.52
556.97	2373.72
557.32	2358.30
557.68	2343.24
558.03	2327.91
558.39	2313.55
558.74	2299.69
559.10	2284.13
559.45	2268.88
559.81	2254.27
560.16	2239.44
560.52	2224.37
560.87	2209.41
561.23	2194.14
561.58	2179.37
561.94	2164.22
562.29	2148.82
562.64	2133.39
563.00	2118.19
563.35	2103.27
563.71	2087.92
564.06	2072.68
564.42	2057.93
564.77	2043.26
565.12	2028.49
565.48	2013.61
565.83	1998.94
566.19	1984.33
566.54	1969.91
566.89	1954.84
567.25	1939.56
567.60	1925.10
567.96	1910.01
568.31	1893.72
568.66	1878.43
569.02	1863.59
569.37	1849.32
569.72	1835.58
570.08	1821.42
570.43	1806.73
570.78	1791.86
571.14	1776.83
571.49	1761.93
571.84	1747.45
572.20	1731.89
572.55	1716.99
572.90	1702.08
573.26	1687.13
573.61	1671.54
573.96	1656.49
574.31	1641.48
574.67	1626.45
575.02	1611.11
575.37	1595.77
575.72	1581.14
576.08	1566.47
576.43	1551.17
576.78	1536.01
577.13	1520.99
577.49	1506.26
577.84	1491.94
578.19	1477.20
578.54	1462.46
578.90	1447.74
579.25	1432.91
579.60	1419.17
579.95	1405.23
580.30	1391.24
580.66	1377.04
581.01	1363.00
581.36	1349.05
581.71	1335.72
582.06	1322.36
582.42	1308.89
582.77	1295.90
583.12	1283.13
583.47	1270.18
583.82	1257.56
584.17	1244.58
584.53	1231.66
584.88	1218.98
585.23	1206.16
585.58	1193.73
585.93	1181.30
586.28	1169.70
586.63	1157.93
586.98	1145.91
587.34	1134.22
587.69	1122.35
588.04	1110.86
588.39	1099.63
588.74	1088.07
589.09	1076.66
589.44	1064.98
589.79	1053.87
590.14	1042.73
590.49	1031.72
590.84	1021.01
591.19	1010.40
591.54	999.90
591.89	989.07
592.25	978.58
592.60	968.05
592.95	957.68
593.30	947.54
593.65	937.16
594.00	927.11
594.35	917.85
594.70	907.97
595.05	898.70
595.40	889.22
595.75	879.58
596.10	870.54
596.45	861.47
596.80	852.74
597.15	843.99
597.50	835.34
597.85	826.89
598.19	818.39
598.54	809.90
598.89	801.87
599.24	794.26
599.59	786.48
599.94	779.20
600.29	771.95
600.64	764.62
600.99	757.19
601.34	749.94
601.69	742.20
602.04	735.27
602.39	728.26
602.74	721.44
603.08	714.76
603.43	708.03
603.78	701.30
604.13	694.70
604.48	688.14
604.83	681.76
605.18	675.44
605.53	669.29
605.87	663.12
606.22	657.02
606.57	650.88
606.92	644.64
607.27	638.47
607.62	632.48
607.96	626.71
608.31	621.36
608.66	615.90
609.01	610.71
609.36	605.49
609.70	600.22
610.05	595.00
610.40	589.91
610.75	584.86
611.10	580.02
611.44	575.16
611.79	570.43
612.14	565.59
612.49	560.83
612.83	556.33
613.18	551.89
613.53	547.48
613.88	543.15
614.22	539.14
614.57	535.03
614.92	531.01
615.27	527.12
615.61	523.14
615.96	519.23
616.31	515.29
616.65	511.51
617.00	507.85
617.35	504.20
617.70	500.60
618.04	497.06
618.39	493.63
618.74	490.40
619.08	487.14
619.43	484.01
619.78	480.83
620.12	477.63
620.47	474.62
620.82	471.66
621.16	468.73
621.51	465.87
621.85	463.02
622.20	460.24
622.55	457.45
622.89	454.72
623.24	452.13
623.59	449.59
623.93	447.11
624.28	444.76
624.62	442.61
624.97	440.47
625.32	438.22
625.66	435.94
626.01	433.62
626.35	431.44
626.70	429.21
627.04	427.14
627.39	425.04
627.73	423.04
628.08	421.11
628.43	419.18
628.77	417.16
629.12	415.30
629.46	413.50
629.81	411.80
630.15	410.03
630.50	408.26
630.84	406.55
631.19	404.88
631.53	403.25
631.88	401.47
632.22	399.76
632.57	398.34
632.91	396.89
633.26	395.52
633.60	394.16
633.95	392.86
634.29	391.46
634.64	390.12
634.98	388.60
635.32	387.26
635.67	386.06
636.01	384.87
636.36	383.68
636.70	382.61
637.05	381.37
637.39	380.27
637.73	379.18
638.08	378.14
638.42	377.13
638.77	376.01
639.11	374.85
639.45	373.74
639.80	372.55
640.14	371.46
640.49	370.33
640.83	369.21
641.17	368.13
641.52	367.09
641.86	366.07
642.20	365.23
642.55	364.17
642.89	363.15
643.23	362.20
643.58	361.37
643.92	360.34
644.26	359.42
644.61	358.53
644.95	357.62
645.29	356.63
645.64	355.62
645.98	354.70
646.32	353.90
646.66	353.04
647.01	352.21
647.35	351.46
647.69	350.69
648.04	349.97
648.38	349.19
648.72	348.44
649.06	347.68
649.41	346.88
649.75	346.13
650.09	345.42
650.43	344.66
650.78	343.87
651.12	343.14
651.46	342.41
651.80	341.70
652.14	341.01
652.49	340.40
652.83	339.72
653.17	339.03
653.51	338.36
653.85	337.76
654.20	337.13
654.54	336.39
654.88	335.68
655.22	335.04
655.56	334.37
655.90	333.73
656.25	333.11
656.59	332.49
656.93	331.91
657.27	331.37
657.61	330.75
657.95	330.17
658.29	329.60
658.64	329.04
658.98	328.43
659.32	327.83
659.66	327.28
660.00	326.76
660.34	326.24
660.68	325.65
661.02	325.03
661.36	324.44
661.70	323.91
662.05	323.38
662.39	322.85
662.73	322.38
663.07	321.96
663.41	321.48
663.75	320.96
664.09	320.44
664.43	319.81
664.77	319.30
665.11	318.72
665.45	318.19
665.79	317.68
666.13	317.15
666.47	316.61
666.81	316.04
667.15	315.43
667.49	314.94
667.83	314.53
668.17	314.07
668.51	313.62
668.85	313.21
669.19	312.84
669.53	312.31
669.87	311.79
670.21	311.23
670.55	310.72
670.89	310.32
671.23	309.88
671.57	309.49
671.91	309.13
672.25	308.79
672.58	308.45
672.92	308.01
673.26	307.65
673.60	307.27
673.94	306.89
674.28	306.55
674.62	306.15
674.96	305.70
675.30	305.32
675.64	304.88
675.97	304.40
676.31	303.89
676.65	303.47
676.99	303.12
677.33	302.68
677.67	302.28
678.01	301.79
678.34	301.38
678.68	300.96
679.02	300.50
679.36	300.05
679.70	299.57
680.04	299.17
680.37	298.75
680.71	298.35
681.05	297.98
681.39	297.55
681.73	297.07
682.06	296.63
682.40	296.22
682.74	295.85
683.08	295.56
683.42	295.19
683.75	294.83
684.09	294.35
684.43	293.95
684.77	293.52
685.10	293.12
685.44	292.72
685.78	292.31
686.12	291.91
686.45	291.48
686.79	291.05
687.13	290.64
687.46	290.18
687.80	289.76
688.14	289.29
688.48	288.87
688.81	288.45
689.15	288.10
689.49	287.66
689.82	287.23
690.16	286.69
690.50	286.24
690.83	285.79
691.17	285.36
691.51	284.94
691.84	284.58
692.18	284.16
692.52	283.71
692.85	283.29
693.19	282.90
693.52	282.49
693.86	282.07
694.20	281.65
694.53	281.23
694.87	280.79
695.21	280.35
695.54	279.94
695.88	279.51
696.21	279.02
696.55	278.59
696.88	278.16
697.22	277.74
697.56	277.34
697.89	276.90
698.23	276.50
698.56	276.06
698.90	275.66
699.23	275.21
699.57	274.81
699.90	274.39
700.24	273.95
700.58	273.56
700.91	273.22
701.25	273.01
701.58	272.71
701.92	272.38
702.25	272.03
702.59	271.63
702.92	271.26
703.26	270.87
703.59	270.49
703.93	270.26
704.26	269.90
704.60	269.52
704.93	269.15
705.26	268.76
705.60	268.44
705.93	268.02
706.27	267.72
706.60	267.40
706.94	267.10
707.27	266.73
707.61	266.35
707.94	265.94
708.27	265.40
708.61	264.97
708.94	264.57
709.28	264.21
709.61	263.84
709.94	263.52
710.28	263.21
710.61	262.90
710.95	262.42
711.28	262.20
711.61	261.85
711.95	261.56
712.28	261.22
712.61	260.87
712.95	260.65
713.28	260.41
713.61	260.04
713.95	259.68
714.28	259.38
714.61	259.06
714.95	258.75
715.28	258.45
715.61	258.15
715.95	257.87
716.28	257.57
716.61	257.33
716.95	257.01
717.28	256.72
717.61	256.42
717.94	256.15
718.28	255.74
718.61	255.47
718.94	255.17
719.27	254.91
719.61	254.67
719.94	254.37
720.27	254.01
720.60	253.77
720.94	253.51
721.27	253.26
721.60	253.04
721.93	252.80
722.27	252.61
722.60	252.38
722.93	252.12
723.26	251.90
723.59	251.63
723.93	251.43
724.26	251.22
724.59	250.98
724.92	250.77
725.25	250.60
725.59	250.39
725.92	250.19
726.25	249.97
726.58	249.74
726.91	249.49
727.24	249.29
727.57	249.07
727.91	248.82
728.24	248.64
728.57	248.42
728.90	248.23
729.23	247.97
729.56	247.84
729.89	247.66
730.22	247.45
730.55	247.26
730.89	247.06
731.22	246.85
731.55	246.66
731.88	246.50
732.21	246.28
732.54	246.09
732.87	245.91
733.20	245.75
733.53	245.59
733.86	245.44
734.19	245.25
734.52	245.12
734.85	245.09
735.18	244.88
735.51	244.76
735.84	244.61
736.17	244.50
736.50	244.24
736.83	244.27
737.16	244.12
737.49	243.96
737.82	243.78
738.15	243.64
738.48	243.47
738.81	243.30
739.14	243.12
739.47	242.95
739.80	242.79
740.13	242.65
740.46	242.47
740.79	242.28
741.12	242.13
741.45	241.94
741.78	241.69
742.11	241.59
742.44	241.38
742.77	241.25
743.10	241.07
743.43	240.93
743.75	240.60
744.08	240.73
744.41	240.57
744.74	240.44
745.07	240.26
745.40	240.17
745.73	240.12
746.06	240.00
746.39	239.90
746.71	239.76
747.04	239.61
747.37	239.47
747.70	239.37
748.03	239.26
748.36	239.17
748.68	239.05
749.01	238.89
749.34	238.80
749.67	238.67
750.00	238.58
750.33	238.60
750.65	238.50
750.98	238.13
751.31	238.03
751.64	237.94
751.97	237.93
752.29	237.80
752.62	237.60
752.95	237.49
753.28	237.34
753.60	237.23
753.93	237.17
754.26	237.09
754.59	236.93
754.91	236.80
755.24	236.67
755.57	236.58
755.90	236.47
756.22	236.34
756.55	236.22
756.88	236.10
757.20	235.88
757.53	235.73
757.86	235.62
758.19	235.54
758.51	235.43
758.84	235.25
759.17	235.14
759.49	235.06
759.82	235.05
760.15	234.98
760.47	234.88
760.80	234.75
761.13	234.68
761.45	234.60
761.78	234.52
762.11	234.44
762.43	234.33
762.76	234.25
763.08	234.20
763.41	234.14
763.74	234.06
764.06	233.98
764.39	233.90
764.71	233.82
765.04	233.72
765.37	233.64
765.69	233.58
766.02	233.50
766.34	233.42
766.67	233.28
767.00	233.25
767.32	233.28
767.65	233.32
767.97	233.24
768.30	233.19
768.62	233.13
768.95	233.04
769.27	232.98
769.60	232.96
769.92	232.86
770.25	232.76
770.57	232.67
770.90	232.60
771.22	232.55
771.55	232.50
771.87	232.46
772.20	232.40
772.52	232.49
772.85	232.65
773.17	232.61
773.50	232.55
773.82	232.47
774.15	232.33
774.47	232.17
774.80	232.11
775.12	232.06
775.45	232.02
775.77	232.00
776.09	231.96
776.42	231.90
776.74	231.91
777.07	231.87
777.39	231.85
777.72	231.82
778.04	231.80
778.36	231.73
778.69	231.70
779.01	231.68
779.33	231.48
779.66	231.24
779.98	231.19
780.31	231.16
780.63	231.19
780.95	231.20
781.28	231.17
781.60	231.12
781.92	231.09
782.25	231.05
782.57	231.01
782.89	230.97
783.22	230.93
783.54	230.87
783.86	230.85
784.19	230.80
784.51	230.82
784.83	230.76
785.16	230.74
785.48	230.71
785.80	230.68
786.12	230.67
786.45	230.64
786.77	230.62
787.09	230.59
787.42	230.50
787.74	230.48
788.06	230.45
788.38	230.42
788.71	230.38
789.03	230.36
789.35	230.36
789.67	230.32
789.99	230.32
790.32	230.27
790.64	230.27
790.96	230.42
791.28	230.33
791.61	230.28
791.93	230.27
792.25	230.23
792.57	230.32
792.89	230.26
793.21	230.25
793.54	230.21
793.86	230.16
794.18	230.14
794.50	230.08
794.82	230.06
795.14	230.05
795.47	230.05
795.79	230.03
796.11	229.96
796.43	229.92
796.75	229.89
797.07	229.88
797.39	229.84
797.71	229.65
798.04	229.64
798.36	229.64
798.68	229.61
799.00	229.60
799.32	229.50
799.64	229.51
799.96	229.49
800.28	229.50
800.60	229.47
800.92	229.47
801.24	229.45
801.56	229.43
801.89	229.40
802.21	229.38
802.53	229.34
802.85	229.37
803.17	229.44
803.49	229.38
803.81	229.36
804.13	229.33
804.45	229.30
804.77	229.30
805.09	229.28
805.41	229.25
805.73	229.20
806.05	229.13
806.37	229.10
806.69	229.06
807.01	229.03
807.33	229.03
807.65	228.93
807.97	229.00
808.28	228.97
808.60	228.94
808.92	228.91
809.24	229.01
809.56	228.96
809.88	228.87
810.20	228.87
810.52	228.89
810.84	228.86
811.16	228.82
811.48	228.79
811.80	228.85
812.12	228.83
812.43	228.86
812.75	228.87
813.07	228.85
813.39	228.85
813.71	228.81
814.03	228.79
814.35	228.81
814.67	228.72
814.98	228.69
815.30	228.69
815.62	228.64
815.94	228.50
816.26	228.51
816.58	228.47
816.89	228.48
817.21	228.42
817.53	228.41
817.85	228.41
818.17	228.39
818.48	228.30
818.80	228.33
819.12	228.29
819.44	228.26
819.76	228.21
820.07	228.21
820.39	228.20
820.71	228.20
821.03	228.19
821.34	228.17
821.66	228.18
821.98	228.18
822.30	228.18
822.61	228.29
822.93	228.26
823.25	228.26
823.57	228.22
823.88	228.24
824.20	228.24
824.52	228.26
824.83	228.26
825.15	228.23
825.47	228.20
825.79	228.21
826.10	228.18
826.42	228.17
826.74	228.17
827.05	228.17
827.37	228.16
827.69	228.15
828.00	228.14
828.32	228.13
828.64	228.10
828.95	228.20
829.27	228.13
829.58	228.12
829.90	228.13
830.22	228.14
830.53	228.10
830.85	228.07
831.17	228.01
831.48	228.01
831.80	228.02
832.11	228.00
832.43	227.96
832.75	227.96
833.06	228.06
833.38	228.00
833.69	227.98
834.01	227.98
834.32	227.98
834.64	227.96
834.96	227.95
835.27	227.94
835.59	227.86
835.90	227.84
836.22	227.83
836.53	227.79
836.85	227.77
837.16	227.94
837.48	227.94
837.79	228.01
838.11	228.00
838.42	227.98
838.74	228.01
839.05	228.00
839.37	227.98
839.68	227.88
840.00	227.87
840.31	227.90
840.63	227.87
840.94	227.85
841.26	227.83
841.57	227.82
841.88	227.84
842.20	227.81
842.51	227.77
842.83	227.75
843.14	227.89
843.46	227.88
843.77	227.76
844.08	227.75
844.40	227.68
844.71	227.66
845.03	227.63
845.34	227.60
845.65	227.60
845.97	227.59
846.28	227.60
846.60	227.60
846.91	227.56
847.22	227.55
847.54	227.58
847.85	227.60
848.16	227.57
848.48	227.53
848.79	227.59
849.10	227.62
849.42	227.63
849.73	227.48
850.04	227.48
850.36	227.41
850.67	227.44
850.98	227.45
851.30	227.47
851.61	227.47
851.92	227.47
852.23	227.52
852.55	227.53
852.86	227.53
853.17	227.54
853.49	227.59
853.80	227.63
854.11	227.64
854.42	227.65
854.74	227.64
855.05	227.65
855.36	227.56
855.67	227.55
855.99	227.55
856.30	227.75
856.61	227.75
856.92	227.76
857.23	227.76
857.55	227.74
857.86	227.72
858.17	227.74
858.48	227.71
858.79	227.67
859.11	227.68
859.42	227.66
859.73	227.63
860.04	227.60
860.35	227.55
860.66	227.49
860.98	227.48
861.29	227.49
861.60	227.47
861.91	227.51
862.22	227.48
862.53	227.45
862.84	227.24
863.16	227.28
863.47	227.24
863.78	227.21
864.09	227.22
864.40	227.23
864.71	227.23
865.02	227.25
865.33	227.23
865.64	227.20
865.95	227.22
866.27	227.32
866.58	227.31
866.89	227.33
867.20	227.33
867.51	227.31
867.82	227.30
868.13	227.37
868.44	227.33
868.75	227.36
869.06	227.38
869.37	227.39
869.68	227.35
869.99	227.38
870.30	227.39
870.61	227.41
870.92	227.40
871.23	227.39
871.54	227.40
871.85	227.45
872.16	227.46
872.47	227.44
872.78	227.34
873.09	227.37
873.40	227.35
873.71	227.37
874.02	227.38
874.33	227.37
874.64	227.32
874.95	227.36
875.26	227.33
875.56	227.32
875.87	227.32
876.18	227.30
876.49	227.48
876.80	227.46
877.11	227.43
877.42	227.45
877.73	227.45
878.04	227.43
878.35	227.43
878.66	227.44
878.96	227.45
879.27	227.45
879.58	227.43
879.89	227.42
880.20	227.46
880.51	227.45
880.82	227.46
881.12	227.47
881.43	227.42
881.74	227.40
882.05	227.39
882.36	227.41
882.67	227.43
882.97	227.24
883.28	227.22
883.59	227.21
883.90	227.21
884.21	227.22
884.51	227.21
884.82	227.19
885.13	227.18
885.44	227.17
885.74	227.16
886.05	227.15
886.36	227.15
886.67	227.09
886.98	227.19
887.28	227.20
887.59	227.20
887.90	227.20
888.20	227.20
888.51	227.23
888.82	227.19
889.13	227.20
889.43	227.36
889.74	227.36
890.05	227.36
890.35	227.34
890.66	227.31
890.97	227.30
891.28	227.28
891.58	227.28
891.89	227.28
892.20	227.27
892.50	227.25
892.81	227.24
893.12	227.24
893.42	227.14
893.73	227.14
894.04	227.14
894.34	227.16
894.65	227.17
894.95	227.15
895.26	227.16
895.57	227.24
895.87	227.06
896.18	227.09
896.48	227.10
896.79	227.09
897.10	227.12
897.40	227.11
897.71	227.14
898.01	227.12
898.32	227.14
898.63	227.13
898.93	227.16
899.24	227.17
899.54	227.16
899.85	227.15
900.15	227.14
900.46	227.13
900.76	227.15
901.07	227.14
901.38	227.13
901.68	227.14
901.99	227.04
902.29	227.05
902.60	227.03
902.90	227.00
903.21	227.01
903.51	226.99
903.82	227.02
904.12	227.02
904.43	227.03
904.73	227.02
905.03	227.04
905.34	227.20
905.64	227.19
905.95	227.19
906.25	227.19
906.56	227.18
906.86	227.18
907.17	227.15
907.47	227.16
907.77	227.15
908.08	227.12
908.38	227.13
908.69	227.15
908.99	227.17
909.30	227.18
909.60	227.17
909.90	227.17
910.21	227.12
910.51	227.08
910.81	227.07
911.12	227.08
911.42	227.08
911.73	226.88
912.03	226.89
912.33	226.93
912.64	226.91
912.94	226.89
913.24	226.85
913.55	226.84
913.85	226.82
914.15	226.84
914.46	226.87
914.76	226.85
915.06	226.84
915.37	226.81
915.67	226.80
915.97	226.79
916.27	226.77
916.58	226.78
916.88	226.78
917.18	226.77
917.49	226.88
917.79	226.88
918.09	226.90
918.39	226.95
918.70	226.93
919.00	226.94
919.30	227.04
919.60	227.04
919.91	227.02
920.21	227.03
920.51	226.99
920.81	226.98
921.12	227.01
921.42	227.00
921.72	227.02
922.02	227.03
922.32	227.06
922.63	227.06
922.93	227.15
923.23	227.17
923.53	227.16
923.83	227.03
924.13	227.05
924.44	227.06
924.74	227.08
925.04	227.12
925.34	227.12
925.64	227.03
925.94	227.04
926.24	227.15
926.55	227.13
926.85	227.16
927.15	227.14
927.45	227.14
927.75	227.13
928.05	227.12
928.35	227.12
928.65	227.15
928.95	227.17
929.26	227.09
929.56	227.12
929.86	227.14
930.16	227.13
930.46	227.11
930.76	227.11
931.06	227.03
931.36	226.97
931.66	227.00
931.96	227.03
932.26	227.04
932.56	226.97
932.86	226.99
933.16	226.99
933.46	226.99
933.76	226.96
934.06	227.00
934.36	227.06
934.66	227.05
934.96	227.02
935.26	227.02
935.56	227.05
935.86	227.02
936.16	227.00
936.46	226.99
936.76	226.99
937.06	226.96
937.36	226.98
937.66	227.00
937.96	226.99
938.26	226.94
938.56	226.93
938.86	226.93
939.16	226.97
939.46	226.98
939.76	227.00
940.06	226.99
940.35	226.95
940.65	226.87
940.95	226.90
941.25	226.85
941.55	226.82
941.85	226.81
942.15	226.84
942.45	226.89
942.75	226.89
943.04	226.89
943.34	226.92
943.64	226.90
943.94	226.87
944.24	226.87
944.54	226.89
944.84	226.89
945.13	226.87
945.43	226.83
945.73	226.82
946.03	226.80
946.33	226.79
946.62	226.78
946.92	226.78
947.22	226.79
947.52	226.81
947.82	226.83
948.11	226.82
948.41	226.79
948.71	226.73
949.01	226.76
949.31	226.75
949.60	226.74
949.90	226.76
950.20	226.76
950.50	226.75
950.79	226.74
951.09	226.77
951.39	226.76
951.69	226.74
951.98	226.78
952.28	226.80
952.58	226.80
952.87	226.80
953.17	226.83
953.47	226.81
953.76	226.81
954.06	226.78
954.36	226.76
954.66	226.74
954.95	226.80
955.25	226.81
955.55	226.82
955.84	226.79
956.14	226.81
956.44	226.83
956.73	226.81
957.03	226.83
957.32	226.82
957.62	226.83
957.92	226.88
958.21	226.85
958.51	227.05
958.81	227.07
959.10	227.09
959.40	227.12
959.69	227.14
959.99	227.16
960.29	227.16
960.58	227.16
960.88	227.23
961.17	227.20
961.47	227.21
961.76	227.20
962.06	227.23
962.36	227.20
962.65	227.21
962.95	227.22
963.24	227.19
963.54	227.20
963.83	227.21
964.13	227.19
964.42	227.18
964.72	227.02
965.01	227.02
965.31	227.00
965.60	226.96
965.90	227.07
966.19	227.03
966.49	227.04
966.78	227.03
967.08	227.02
967.37	227.02
967.67	227.00
967.96	227.04
968.26	227.02
968.55	227.04
968.85	227.03
969.14	227.02
969.43	227.02
969.73	226.99
970.02	226.98
970.32	226.98
970.61	226.95
970.91	226.90
971.20	226.87
971.49	226.87
971.79	226.88
972.08	226.76
972.38	226.78
972.67	226.77
972.96	226.79
973.26	226.75
973.55	226.81
973.85	226.79
974.14	226.77
974.43	226.81
974.73	226.78
975.02	226.77
975.31	226.78
975.61	226.78
975.90	226.78
976.19	226.77
976.49	226.79
976.78	226.80
977.07	226.81
977.37	226.83
977.66	226.84
977.95	226.82
978.24	226.82
978.54	226.85
978.83	226.85
979.12	226.83
979.42	226.83
979.71	226.80
980.00	226.79
980.29	226.79
980.59	226.74
980.88	226.78
981.17	226.79
981.46	226.79
981.76	226.78
982.05	226.84
982.34	226.86
982.63	226.85
982.93	226.85
983.22	226.89
983.51	226.89
983.80	226.92
984.09	226.94
984.39	226.95
984.68	226.92
984.97	226.94
985.26	226.94
985.55	226.96
985.85	226.93
986.14	226.96
986.43	226.99
986.72	226.98
987.01	226.93
987.30	226.92
987.59	226.90
987.89	226.90
988.18	226.84
988.47	226.83
988.76	226.81
989.05	226.80
989.34	226.78
989.63	226.82
989.92	226.78
990.22	226.75
990.51	226.75
990.80	226.74
991.09	226.75
991.38	226.76
991.67	226.73
991.96	226.72
992.25	226.71
992.54	226.67
992.83	226.67
993.12	226.66
993.41	226.71
993.70	226.77
993.99	226.80
994.28	226.82
994.58	226.85
994.87	226.83
995.16	226.81
995.45	226.80
995.74	226.73
996.03	226.76
996.32	226.79
996.61	226.81
996.90	226.81
997.19	226.79
997.48	226.79
997.77	226.78
998.06	226.78
998.34	226.78
998.63	226.77
998.92	226.77
999.21	226.81
999.50	226.79
999.79	226.73
1000.08	226.71
1000.37	226.71
1000.66	226.68
1000.95	226.72
1001.24	226.74
1001.53	226.77
1001.82	226.76
1002.11	226.73
1002.40	226.75
1002.68	226.78
1002.97	226.91
1003.26	226.88
1003.55	226.86
1003.84	226.87
1004.13	226.93
1004.42	226.91
1004.71	226.92
1004.99	226.92
1005.28	226.95
1005.57	226.94
1005.86	226.93
1006.15	226.92
1006.44	226.90
1006.72	226.93
1007.01	226.90
1007.30	226.89
1007.59	226.87
1007.88	226.87
1008.17	226.88
1008.45	226.83
1008.74	226.76
1009.03	226.68
1009.32	226.69
1009.60	226.69
1009.89	226.68
1010.18	226.60
1010.47	226.59
1010.76	226.58
1011.04	226.58
1011.33	226.58
1011.62	226.60
1011.91	226.61
1012.19	226.63
1012.48	226.63
1012.77	226.63
1013.05	226.69
1013.34	226.70
1013.63	226.69
1013.92	226.70
1014.20	226.69
1014.49	226.70
1014.78	226.73
1015.06	226.67
1015.35	226.68
1015.64	226.71
1015.92	226.74
1016.21	226.76
1016.50	226.76
1016.78	226.78
1017.07	226.80
1017.36	226.77
1017.64	226.74
1017.93	226.77
1018.22	226.74
1018.50	226.75
1018.79	226.74
1019.08	226.69
1019.36	226.71
1019.65	226.70
1019.93	226.75
1020.22	226.78
1020.51	226.88
1020.79	226.86
1021.08	226.58
1021.36	226.49
1021.65	226.81
1021.94	226.66
1022.22	226.96
1022.51	226.56
1022.79	227.77
1023.08	227.08
1023.36	228.89
1023.65	226.42
>>>>>End Processed Spectral Data<<<<<
