SpectraSuite Data File
++++++++++++++++++++++++++++++++++++
Date: Tue Oct 06 18:24:38 EDT 2015
User: lab3
Dark Spectrum Present: No
Reference Spectrum Present: No
Number of Sampled Component Spectra: 1
Spectrometers: USB2E7196
Integration Time (usec): 66000 (USB2E7196)
Spectra Averaged: 3000 (USB2E7196)
Boxcar Smoothing: 10 (USB2E7196)
Correct for Electrical Dark: No (USB2E7196)
Strobe/Lamp Enabled: No (USB2E7196)
Correct for Detector Non-linearity: No (USB2E7196)
Correct for Stray Light: No (USB2E7196)
Number of Pixels in Processed Spectrum: 2048
>>>>>Begin Processed Spectral Data<<<<<
339.09	0.00
339.48	215.70
339.86	217.07
340.24	218.44
340.63	219.81
341.01	223.83
341.39	222.59
341.78	224.10
342.16	225.37
342.54	225.66
342.93	214.07
343.31	224.89
343.69	225.42
344.07	225.89
344.46	226.33
344.84	226.74
345.22	226.94
345.60	227.21
345.99	227.42
346.37	227.55
346.75	227.67
347.13	227.76
347.52	227.84
347.90	227.96
348.28	228.01
348.66	228.09
349.05	228.08
349.43	228.15
349.81	228.23
350.19	228.29
350.57	228.38
350.96	228.48
351.34	228.58
351.72	228.68
352.10	228.80
352.48	228.87
352.87	228.92
353.25	228.99
353.63	229.04
354.01	229.10
354.39	229.18
354.77	229.27
355.15	229.39
355.54	229.43
355.92	229.44
356.30	229.52
356.68	229.70
357.06	229.79
357.44	229.82
357.82	229.87
358.20	230.09
358.58	230.15
358.97	230.21
359.35	230.31
359.73	230.40
360.11	230.46
360.49	230.52
360.87	230.57
361.25	230.64
361.63	230.75
362.01	230.81
362.39	230.83
362.77	230.87
363.15	230.89
363.53	230.93
363.91	230.96
364.29	231.00
364.67	230.85
365.05	230.88
365.43	230.92
365.81	230.97
366.19	230.91
366.57	230.99
366.95	230.99
367.33	230.95
367.71	230.94
368.09	230.98
368.47	230.97
368.85	230.96
369.23	230.98
369.61	230.91
369.99	230.94
370.37	230.96
370.75	231.08
371.13	231.04
371.51	230.99
371.89	230.98
372.27	230.96
372.65	230.94
373.03	230.90
373.41	230.85
373.78	230.80
374.16	230.68
374.54	230.58
374.92	230.53
375.30	230.50
375.68	230.42
376.06	230.37
376.44	230.32
376.82	230.29
377.19	230.24
377.57	230.18
377.95	230.08
378.33	230.01
378.71	229.81
379.09	229.77
379.47	229.75
379.84	229.68
380.22	229.62
380.60	229.55
380.98	229.50
381.36	229.45
381.73	229.38
382.11	229.36
382.49	229.33
382.87	229.26
383.25	229.22
383.62	229.39
384.00	229.32
384.38	229.28
384.76	229.28
385.13	229.29
385.51	229.26
385.89	229.21
386.27	229.18
386.64	229.18
387.02	229.13
387.40	229.08
387.78	229.06
388.15	229.04
388.53	229.01
388.91	228.98
389.29	228.95
389.66	228.96
390.04	228.92
390.42	228.93
390.79	228.93
391.17	228.91
391.55	228.70
391.92	228.70
392.30	228.71
392.68	228.67
393.05	228.65
393.43	228.66
393.81	228.68
394.18	228.67
394.56	228.67
394.94	228.73
395.31	228.73
395.69	228.81
396.06	228.86
396.44	228.90
396.82	228.93
397.19	229.06
397.57	229.08
397.95	229.15
398.32	229.14
398.70	229.22
399.07	229.32
399.45	229.39
399.82	229.46
400.20	229.51
400.58	229.60
400.95	229.62
401.33	229.74
401.70	229.97
402.08	230.10
402.45	230.23
402.83	230.40
403.20	230.57
403.58	230.70
403.95	230.91
404.33	231.13
404.71	231.34
405.08	231.64
405.46	231.88
405.83	232.15
406.21	232.45
406.58	232.77
406.96	233.08
407.33	233.44
407.70	233.86
408.08	234.42
408.45	234.92
408.83	235.45
409.20	235.95
409.58	236.39
409.95	237.00
410.33	237.66
410.70	238.28
411.08	239.02
411.45	239.80
411.82	240.60
412.20	241.51
412.57	242.58
412.95	243.45
413.32	244.56
413.69	245.71
414.07	246.93
414.44	248.25
414.82	249.61
415.19	251.21
415.56	252.83
415.94	254.52
416.31	256.42
416.68	258.32
417.06	260.52
417.43	262.59
417.81	264.96
418.18	267.39
418.55	270.03
418.93	272.77
419.30	275.65
419.67	278.69
420.04	281.82
420.42	285.10
420.79	288.87
421.16	292.68
421.54	296.54
421.91	300.58
422.28	304.78
422.66	309.30
423.03	313.60
423.40	318.10
423.77	322.93
424.15	327.85
424.52	332.96
424.89	338.48
425.26	343.97
425.64	349.06
426.01	354.77
426.38	360.59
426.75	366.59
427.13	372.73
427.50	379.15
427.87	385.81
428.24	392.52
428.61	398.96
428.99	405.89
429.36	413.50
429.73	420.76
430.10	428.00
430.47	435.40
430.85	443.05
431.22	451.19
431.59	459.56
431.96	467.71
432.33	476.78
432.70	485.39
433.08	495.59
433.45	505.22
433.82	514.71
434.19	525.37
434.56	535.86
434.93	546.04
435.30	556.12
435.68	567.55
436.05	578.72
436.42	589.89
436.79	600.13
437.16	611.24
437.53	623.12
437.90	635.00
438.27	646.67
438.64	659.29
439.01	670.73
439.38	681.23
439.75	691.40
440.13	702.97
440.50	713.98
440.87	722.79
441.24	732.48
441.61	743.12
441.98	750.98
442.35	760.32
442.72	769.84
443.09	778.90
443.46	784.84
443.83	789.39
444.20	793.16
444.57	798.59
444.94	801.86
445.31	805.24
445.68	808.15
446.05	810.40
446.42	810.22
446.79	809.80
447.16	809.51
447.53	809.27
447.90	806.01
448.27	802.88
448.64	797.87
449.01	794.49
449.37	787.26
449.74	780.70
450.11	772.16
450.48	762.76
450.85	753.36
451.22	745.26
451.59	737.27
451.96	730.05
452.33	719.56
452.70	710.24
453.07	698.89
453.43	687.57
453.80	676.48
454.17	665.88
454.54	656.10
454.91	645.02
455.28	634.57
455.65	624.70
456.02	614.25
456.38	605.83
456.75	595.03
457.12	586.33
457.49	577.55
457.86	569.24
458.23	561.92
458.59	553.85
458.96	545.56
459.33	538.30
459.70	530.89
460.07	525.23
460.43	518.53
460.80	512.29
461.17	506.86
461.54	501.01
461.91	495.51
462.27	489.92
462.64	485.34
463.01	480.11
463.38	474.83
463.74	470.08
464.11	465.86
464.48	462.02
464.85	457.90
465.21	454.73
465.58	451.24
465.95	447.26
466.32	444.08
466.68	440.99
467.05	437.85
467.42	434.81
467.78	431.57
468.15	428.59
468.52	426.39
468.88	423.48
469.25	420.83
469.62	418.73
469.98	416.44
470.35	414.40
470.72	412.55
471.08	410.69
471.45	409.12
471.82	407.37
472.18	405.53
472.55	404.35
472.92	402.87
473.28	401.71
473.65	400.49
474.02	399.31
474.38	398.30
474.75	397.71
475.11	396.90
475.48	396.51
475.85	396.08
476.21	395.82
476.58	395.64
476.94	395.81
477.31	395.84
477.67	395.91
478.04	396.21
478.41	396.63
478.77	397.22
479.14	397.58
479.50	398.35
479.87	399.33
480.23	400.27
480.60	401.18
480.96	402.10
481.33	403.48
481.69	404.83
482.06	406.19
482.42	407.43
482.79	408.99
483.15	410.81
483.52	412.87
483.88	414.81
484.25	416.88
484.61	419.05
484.98	421.39
485.34	424.03
485.71	426.78
486.07	429.73
486.44	432.61
486.80	435.88
487.17	439.22
487.53	442.84
487.90	446.65
488.26	450.79
488.62	455.16
488.99	459.51
489.35	464.09
489.72	468.99
490.08	474.17
490.44	479.44
490.81	484.94
491.17	490.61
491.54	496.69
491.90	502.90
492.26	509.53
492.63	516.48
492.99	523.73
493.36	531.11
493.72	538.88
494.08	546.87
494.45	555.23
494.81	563.97
495.17	572.98
495.54	582.46
495.90	592.35
496.26	602.42
496.63	612.79
496.99	623.55
497.35	634.80
497.72	646.30
498.08	658.15
498.44	670.28
498.80	683.09
499.17	696.19
499.53	709.74
499.89	723.72
500.26	737.90
500.62	752.43
500.98	767.76
501.34	783.09
501.71	799.26
502.07	815.70
502.43	832.59
502.79	849.66
503.16	867.22
503.52	884.98
503.88	903.17
504.24	921.77
504.60	940.64
504.97	960.13
505.33	980.07
505.69	1001.04
506.05	1022.23
506.41	1043.29
506.78	1064.53
507.14	1086.34
507.50	1108.56
507.86	1131.18
508.22	1154.02
508.59	1176.78
508.95	1200.59
509.31	1224.84
509.67	1249.67
510.03	1274.42
510.39	1299.11
510.75	1323.88
511.12	1349.09
511.48	1374.38
511.84	1399.73
512.20	1425.43
512.56	1452.12
512.92	1478.61
513.28	1504.51
513.64	1530.84
514.00	1557.48
514.37	1584.41
514.73	1611.34
515.09	1637.62
515.45	1664.22
515.81	1690.96
516.17	1717.44
516.53	1743.32
516.89	1769.03
517.25	1795.07
517.61	1820.89
517.97	1847.40
518.33	1873.29
518.69	1899.00
519.05	1925.22
519.41	1951.57
519.77	1977.86
520.13	2002.70
520.49	2027.64
520.85	2052.91
521.21	2077.56
521.57	2102.57
521.93	2126.59
522.29	2151.19
522.65	2175.71
523.01	2199.84
523.37	2223.26
523.73	2247.40
524.09	2271.32
524.45	2294.83
524.81	2317.71
525.17	2340.39
525.53	2362.39
525.89	2384.74
526.25	2406.75
526.61	2427.09
526.97	2447.51
527.33	2467.78
527.68	2487.77
528.04	2507.43
528.40	2525.77
528.76	2544.36
529.12	2562.55
529.48	2581.23
529.84	2597.20
530.20	2613.54
530.56	2629.11
530.91	2644.99
531.27	2660.29
531.63	2674.48
531.99	2688.64
532.35	2702.39
532.71	2715.75
533.07	2729.34
533.42	2741.06
533.78	2753.11
534.14	2766.09
534.50	2777.89
534.86	2790.12
535.21	2800.40
535.57	2810.53
535.93	2820.49
536.29	2828.55
536.65	2836.53
537.00	2843.07
537.36	2851.07
537.72	2858.10
538.08	2864.61
538.44	2870.02
538.79	2875.03
539.15	2878.70
539.51	2881.57
539.87	2883.31
540.22	2883.65
540.58	2884.20
540.94	2885.68
541.29	2885.82
541.65	2884.74
542.01	2883.20
542.37	2880.13
542.72	2878.53
543.08	2875.23
543.44	2872.24
543.79	2868.93
544.15	2864.82
544.51	2860.90
544.87	2855.88
545.22	2849.92
545.58	2843.91
545.94	2838.00
546.29	2830.58
546.65	2823.54
547.01	2816.56
547.36	2810.02
547.72	2803.59
548.07	2795.48
548.43	2786.27
548.79	2776.85
549.14	2767.74
549.50	2758.70
549.86	2748.75
550.21	2737.22
550.57	2726.79
550.92	2714.63
551.28	2703.01
551.64	2691.53
551.99	2679.74
552.35	2667.53
552.70	2655.24
553.06	2643.30
553.41	2630.91
553.77	2618.44
554.13	2605.95
554.48	2592.40
554.84	2578.15
555.19	2564.28
555.55	2550.27
555.90	2536.72
556.26	2523.44
556.61	2508.98
556.97	2493.63
557.32	2478.77
557.68	2464.27
558.03	2449.46
558.39	2435.59
558.74	2422.23
559.10	2407.04
559.45	2392.09
559.81	2377.87
560.16	2363.21
560.52	2348.40
560.87	2333.78
561.23	2318.77
561.58	2304.34
561.94	2289.38
562.29	2273.82
562.64	2258.48
563.00	2243.32
563.35	2228.22
563.71	2212.81
564.06	2197.55
564.42	2182.83
564.77	2168.13
565.12	2153.10
565.48	2137.84
565.83	2122.87
566.19	2107.80
566.54	2093.02
566.89	2077.74
567.25	2062.31
567.60	2047.76
567.96	2032.33
568.31	2015.80
568.66	2000.29
569.02	1985.22
569.37	1970.76
569.72	1956.97
570.08	1942.67
570.43	1927.74
570.78	1912.70
571.14	1897.40
571.49	1882.23
571.84	1867.31
572.20	1851.21
572.55	1835.96
572.90	1820.82
573.26	1805.53
573.61	1789.71
573.96	1774.44
574.31	1758.93
574.67	1743.32
575.02	1727.37
575.37	1711.55
575.72	1696.42
576.08	1680.90
576.43	1664.80
576.78	1648.85
577.13	1633.10
577.49	1617.61
577.84	1602.58
578.19	1587.03
578.54	1571.65
578.90	1556.16
579.25	1540.55
579.60	1526.08
579.95	1511.33
580.30	1496.45
580.66	1481.36
581.01	1466.32
581.36	1451.46
581.71	1437.41
582.06	1423.27
582.42	1409.02
582.77	1395.26
583.12	1381.71
583.47	1368.10
583.82	1354.63
584.17	1340.74
584.53	1326.94
584.88	1313.36
585.23	1299.68
585.58	1286.40
585.93	1273.04
586.28	1260.64
586.63	1248.09
586.98	1235.16
587.34	1222.55
587.69	1209.80
588.04	1197.45
588.39	1185.36
588.74	1172.80
589.09	1160.38
589.44	1147.73
589.79	1135.62
590.14	1123.58
590.49	1111.60
590.84	1099.89
591.19	1088.48
591.54	1077.19
591.89	1065.42
592.25	1054.10
592.60	1042.61
592.95	1031.29
593.30	1020.31
593.65	1009.05
594.00	998.03
594.35	987.95
594.70	977.16
595.05	967.01
595.40	956.62
595.75	946.10
596.10	936.23
596.45	926.38
596.80	916.86
597.15	907.33
597.50	897.81
597.85	888.45
598.19	879.11
598.54	869.81
598.89	861.06
599.24	852.69
599.59	844.12
599.94	836.20
600.29	828.26
600.64	820.15
600.99	811.92
601.34	803.97
601.69	795.52
602.04	787.97
602.39	780.28
602.74	772.79
603.08	765.48
603.43	758.10
603.78	750.69
604.13	743.37
604.48	736.13
604.83	729.08
605.18	722.15
605.53	715.34
605.87	708.49
606.22	701.74
606.57	694.91
606.92	687.99
607.27	681.11
607.62	674.46
607.96	668.07
608.31	662.14
608.66	656.15
609.01	650.40
609.36	644.61
609.70	638.75
610.05	632.94
610.40	627.30
610.75	621.65
611.10	616.19
611.44	610.76
611.79	605.40
612.14	599.99
612.49	594.68
612.83	589.63
613.18	584.61
613.53	579.59
613.88	574.77
614.22	570.27
614.57	565.69
614.92	561.19
615.27	556.82
615.61	552.31
615.96	547.84
616.31	543.40
616.65	539.11
617.00	534.95
617.35	530.82
617.70	526.70
618.04	522.72
618.39	518.86
618.74	515.23
619.08	511.57
619.43	508.02
619.78	504.39
620.12	500.79
620.47	497.41
620.82	494.08
621.16	490.78
621.51	487.50
621.85	484.24
622.20	481.06
622.55	477.82
622.89	474.65
623.24	471.66
623.59	468.72
623.93	465.86
624.28	463.15
624.62	460.62
624.97	458.10
625.32	455.48
625.66	452.82
626.01	450.16
626.35	447.64
626.70	445.06
627.04	442.70
627.39	440.27
627.73	437.92
628.08	435.64
628.43	433.35
628.77	431.01
629.12	428.81
629.46	426.69
629.81	424.70
630.15	422.64
630.50	420.61
630.84	418.62
631.19	416.66
631.53	414.77
631.88	412.73
632.22	410.80
632.57	409.13
632.91	407.43
633.26	405.79
633.60	404.16
633.95	402.63
634.29	400.94
634.64	399.36
634.98	397.64
635.32	396.09
635.67	394.70
636.01	393.31
636.36	391.94
636.70	390.66
637.05	389.22
637.39	387.94
637.73	386.65
638.08	385.43
638.42	384.26
638.77	382.95
639.11	381.62
639.45	380.31
639.80	378.95
640.14	377.69
640.49	376.42
640.83	375.14
641.17	373.91
641.52	372.72
641.86	371.55
642.20	370.54
642.55	369.35
642.89	368.17
643.23	367.06
643.58	366.08
643.92	364.94
644.26	363.90
644.61	362.88
644.95	361.82
645.29	360.69
645.64	359.55
645.98	358.52
646.32	357.61
646.66	356.64
647.01	355.71
647.35	354.85
647.69	353.96
648.04	353.15
648.38	352.29
648.72	351.45
649.06	350.62
649.41	349.73
649.75	348.90
650.09	348.12
650.43	347.30
650.78	346.46
651.12	345.65
651.46	344.85
651.80	344.08
652.14	343.37
652.49	342.71
652.83	341.98
653.17	341.22
653.51	340.50
653.85	339.88
654.20	339.21
654.54	338.43
654.88	337.70
655.22	337.02
655.56	336.31
655.90	335.63
656.25	334.96
656.59	334.32
656.93	333.72
657.27	333.16
657.61	332.52
657.95	331.93
658.29	331.33
658.64	330.76
658.98	330.12
659.32	329.50
659.66	328.91
660.00	328.36
660.34	327.81
660.68	327.22
661.02	326.55
661.36	325.94
661.70	325.39
662.05	324.84
662.39	324.29
662.73	323.83
663.07	323.40
663.41	322.93
663.75	322.41
664.09	321.89
664.43	321.25
664.77	320.74
665.11	320.15
665.45	319.63
665.79	319.12
666.13	318.60
666.47	318.07
666.81	317.51
667.15	316.92
667.49	316.45
667.83	316.03
668.17	315.60
668.51	315.18
668.85	314.77
669.19	314.40
669.53	313.87
669.87	313.33
670.21	312.79
670.55	312.27
670.89	311.89
671.23	311.47
671.57	311.10
671.91	310.74
672.25	310.41
672.58	310.08
672.92	309.65
673.26	309.31
673.60	308.95
673.94	308.58
674.28	308.27
674.62	307.89
674.96	307.46
675.30	307.08
675.64	306.64
675.97	306.20
676.31	305.74
676.65	305.33
676.99	305.01
677.33	304.59
677.67	304.21
678.01	303.72
678.34	303.30
678.68	302.91
679.02	302.47
679.36	302.04
679.70	301.60
680.04	301.22
680.37	300.82
680.71	300.43
681.05	300.08
681.39	299.66
681.73	299.22
682.06	298.80
682.40	298.42
682.74	298.07
683.08	297.78
683.42	297.41
683.75	297.07
684.09	296.62
684.43	296.24
684.77	295.84
685.10	295.47
685.44	295.09
685.78	294.68
686.12	294.30
686.45	293.90
686.79	293.46
687.13	293.06
687.46	292.63
687.80	292.23
688.14	291.76
688.48	291.35
688.81	290.94
689.15	290.60
689.49	290.17
689.82	289.74
690.16	289.21
690.50	288.77
690.83	288.35
691.17	287.91
691.51	287.50
691.84	287.12
692.18	286.70
692.52	286.24
692.85	285.82
693.19	285.45
693.52	285.02
693.86	284.62
694.20	284.19
694.53	283.78
694.87	283.32
695.21	282.90
695.54	282.47
695.88	282.05
696.21	281.57
696.55	281.14
696.88	280.71
697.22	280.30
697.56	279.92
697.89	279.47
698.23	279.06
698.56	278.62
698.90	278.22
699.23	277.78
699.57	277.40
699.90	277.00
700.24	276.55
700.58	276.17
700.91	275.82
701.25	275.60
701.58	275.29
701.92	274.96
702.25	274.59
702.59	274.20
702.92	273.82
703.26	273.43
703.59	273.04
703.93	272.80
704.26	272.43
704.60	272.05
704.93	271.66
705.26	271.27
705.60	270.95
705.93	270.53
706.27	270.23
706.60	269.89
706.94	269.59
707.27	269.19
707.61	268.82
707.94	268.41
708.27	267.88
708.61	267.44
708.94	267.04
709.28	266.68
709.61	266.32
709.94	265.99
710.28	265.66
710.61	265.34
710.95	264.85
711.28	264.62
711.61	264.27
711.95	263.98
712.28	263.64
712.61	263.27
712.95	263.04
713.28	262.77
713.61	262.41
713.95	262.03
714.28	261.71
714.61	261.38
714.95	261.06
715.28	260.75
715.61	260.45
715.95	260.17
716.28	259.85
716.61	259.59
716.95	259.27
717.28	258.98
717.61	258.68
717.94	258.41
718.28	258.01
718.61	257.72
718.94	257.40
719.27	257.13
719.61	256.88
719.94	256.57
720.27	256.22
720.60	255.95
720.94	255.68
721.27	255.42
721.60	255.19
721.93	254.92
722.27	254.70
722.60	254.44
722.93	254.16
723.26	253.93
723.59	253.64
723.93	253.43
724.26	253.19
724.59	252.94
724.92	252.71
725.25	252.55
725.59	252.32
725.92	252.11
726.25	251.88
726.58	251.65
726.91	251.41
727.24	251.20
727.57	250.97
727.91	250.72
728.24	250.53
728.57	250.29
728.90	250.09
729.23	249.82
729.56	249.70
729.89	249.50
730.22	249.28
730.55	249.08
730.89	248.86
731.22	248.65
731.55	248.45
731.88	248.26
732.21	248.03
732.54	247.83
732.87	247.63
733.20	247.46
733.53	247.28
733.86	247.11
734.19	246.91
734.52	246.77
734.85	246.73
735.18	246.53
735.51	246.41
735.84	246.26
736.17	246.15
736.50	245.88
736.83	245.92
737.16	245.75
737.49	245.60
737.82	245.42
738.15	245.27
738.48	245.10
738.81	244.93
739.14	244.75
739.47	244.58
739.80	244.42
740.13	244.27
740.46	244.07
740.79	243.88
741.12	243.71
741.45	243.52
741.78	243.27
742.11	243.15
742.44	242.95
742.77	242.81
743.10	242.62
743.43	242.46
743.75	242.12
744.08	242.23
744.41	242.07
744.74	241.91
745.07	241.73
745.40	241.62
745.73	241.55
746.06	241.41
746.39	241.30
746.71	241.16
747.04	241.00
747.37	240.86
747.70	240.76
748.03	240.63
748.36	240.54
748.68	240.40
749.01	240.22
749.34	240.11
749.67	239.98
750.00	239.89
750.33	239.90
750.65	239.80
750.98	239.42
751.31	239.32
751.64	239.22
751.97	239.20
752.29	239.07
752.62	238.89
752.95	238.76
753.28	238.62
753.60	238.50
753.93	238.43
754.26	238.34
754.59	238.18
754.91	238.05
755.24	237.93
755.57	237.82
755.90	237.72
756.22	237.59
756.55	237.45
756.88	237.30
757.20	237.08
757.53	236.92
757.86	236.81
758.19	236.72
758.51	236.62
758.84	236.44
759.17	236.32
759.49	236.23
759.82	236.22
760.15	236.14
760.47	236.05
760.80	235.91
761.13	235.84
761.45	235.75
761.78	235.67
762.11	235.58
762.43	235.48
762.76	235.39
763.08	235.33
763.41	235.26
763.74	235.20
764.06	235.12
764.39	235.04
764.71	234.97
765.04	234.87
765.37	234.78
765.69	234.70
766.02	234.63
766.34	234.54
766.67	234.39
767.00	234.35
767.32	234.37
767.65	234.42
767.97	234.34
768.30	234.28
768.62	234.22
768.95	234.13
769.27	234.06
769.60	234.02
769.92	233.92
770.25	233.81
770.57	233.73
770.90	233.66
771.22	233.59
771.55	233.54
771.87	233.50
772.20	233.44
772.52	233.53
772.85	233.68
773.17	233.63
773.50	233.57
773.82	233.49
774.15	233.34
774.47	233.17
774.80	233.09
775.12	233.03
775.45	232.98
775.77	232.95
776.09	232.92
776.42	232.86
776.74	232.88
777.07	232.83
777.39	232.80
777.72	232.74
778.04	232.73
778.36	232.65
778.69	232.61
779.01	232.59
779.33	232.39
779.66	232.16
779.98	232.09
780.31	232.06
780.63	232.10
780.95	232.09
781.28	232.05
781.60	232.00
781.92	231.97
782.25	231.92
782.57	231.88
782.89	231.83
783.22	231.79
783.54	231.71
783.86	231.69
784.19	231.64
784.51	231.66
784.83	231.60
785.16	231.57
785.48	231.53
785.80	231.49
786.12	231.47
786.45	231.44
786.77	231.43
787.09	231.38
787.42	231.28
787.74	231.25
788.06	231.24
788.38	231.21
788.71	231.16
789.03	231.14
789.35	231.13
789.67	231.08
789.99	231.07
790.32	231.02
790.64	231.01
790.96	231.15
791.28	231.06
791.61	231.03
791.93	231.02
792.25	230.99
792.57	231.08
792.89	231.03
793.21	231.01
793.54	230.97
793.86	230.93
794.18	230.91
794.50	230.86
794.82	230.84
795.14	230.83
795.47	230.85
795.79	230.83
796.11	230.76
796.43	230.73
796.75	230.71
797.07	230.69
797.39	230.65
797.71	230.48
798.04	230.47
798.36	230.47
798.68	230.44
799.00	230.43
799.32	230.32
799.64	230.33
799.96	230.31
800.28	230.33
800.60	230.31
800.92	230.30
801.24	230.27
801.56	230.26
801.89	230.23
802.21	230.22
802.53	230.17
802.85	230.19
803.17	230.26
803.49	230.21
803.81	230.18
804.13	230.15
804.45	230.11
804.77	230.10
805.09	230.08
805.41	230.05
805.73	230.00
806.05	229.94
806.37	229.90
806.69	229.86
807.01	229.82
807.33	229.81
807.65	229.73
807.97	229.80
808.28	229.75
808.60	229.73
808.92	229.69
809.24	229.78
809.56	229.73
809.88	229.65
810.20	229.64
810.52	229.66
810.84	229.62
811.16	229.59
811.48	229.56
811.80	229.61
812.12	229.59
812.43	229.62
812.75	229.62
813.07	229.59
813.39	229.58
813.71	229.55
814.03	229.52
814.35	229.52
814.67	229.43
814.98	229.41
815.30	229.39
815.62	229.35
815.94	229.22
816.26	229.23
816.58	229.19
816.89	229.19
817.21	229.15
817.53	229.16
817.85	229.16
818.17	229.15
818.48	229.06
818.80	229.08
819.12	229.04
819.44	229.00
819.76	228.96
820.07	228.95
820.39	228.94
820.71	228.95
821.03	228.94
821.34	228.92
821.66	228.94
821.98	228.94
822.30	228.93
822.61	229.03
822.93	229.00
823.25	228.99
823.57	228.95
823.88	228.96
824.20	228.95
824.52	228.96
824.83	228.95
825.15	228.93
825.47	228.90
825.79	228.90
826.10	228.89
826.42	228.88
826.74	228.88
827.05	228.87
827.37	228.86
827.69	228.85
828.00	228.84
828.32	228.84
828.64	228.81
828.95	228.90
829.27	228.84
829.58	228.83
829.90	228.85
830.22	228.86
830.53	228.82
830.85	228.80
831.17	228.75
831.48	228.74
831.80	228.74
832.11	228.72
832.43	228.69
832.75	228.68
833.06	228.78
833.38	228.72
833.69	228.71
834.01	228.71
834.32	228.70
834.64	228.69
834.96	228.68
835.27	228.66
835.59	228.59
835.90	228.56
836.22	228.55
836.53	228.51
836.85	228.49
837.16	228.66
837.48	228.66
837.79	228.71
838.11	228.72
838.42	228.71
838.74	228.73
839.05	228.72
839.37	228.71
839.68	228.60
840.00	228.60
840.31	228.61
840.63	228.59
840.94	228.57
841.26	228.55
841.57	228.54
841.88	228.56
842.20	228.53
842.51	228.50
842.83	228.49
843.14	228.65
843.46	228.64
843.77	228.53
844.08	228.52
844.40	228.46
844.71	228.43
845.03	228.42
845.34	228.40
845.65	228.39
845.97	228.39
846.28	228.40
846.60	228.41
846.91	228.38
847.22	228.37
847.54	228.40
847.85	228.41
848.16	228.38
848.48	228.34
848.79	228.42
849.10	228.43
849.42	228.44
849.73	228.27
850.04	228.27
850.36	228.21
850.67	228.23
850.98	228.24
851.30	228.26
851.61	228.26
851.92	228.25
852.23	228.30
852.55	228.30
852.86	228.30
853.17	228.31
853.49	228.35
853.80	228.38
854.11	228.38
854.42	228.40
854.74	228.38
855.05	228.39
855.36	228.29
855.67	228.30
855.99	228.30
856.30	228.51
856.61	228.50
856.92	228.50
857.23	228.50
857.55	228.48
857.86	228.45
858.17	228.47
858.48	228.44
858.79	228.40
859.11	228.41
859.42	228.39
859.73	228.36
860.04	228.34
860.35	228.28
860.66	228.22
860.98	228.21
861.29	228.23
861.60	228.22
861.91	228.26
862.22	228.23
862.53	228.19
862.84	227.99
863.16	228.02
863.47	227.98
863.78	227.96
864.09	227.97
864.40	227.99
864.71	227.99
865.02	228.01
865.33	227.99
865.64	227.96
865.95	227.96
866.27	228.07
866.58	228.06
866.89	228.08
867.20	228.08
867.51	228.05
867.82	228.04
868.13	228.09
868.44	228.05
868.75	228.07
869.06	228.08
869.37	228.10
869.68	228.05
869.99	228.09
870.30	228.09
870.61	228.10
870.92	228.06
871.23	228.04
871.54	228.06
871.85	228.10
872.16	228.12
872.47	228.11
872.78	228.01
873.09	228.02
873.40	228.00
873.71	228.02
874.02	228.04
874.33	228.01
874.64	227.97
874.95	228.00
875.26	227.96
875.56	227.96
875.87	227.95
876.18	227.95
876.49	228.12
876.80	228.09
877.11	228.06
877.42	228.08
877.73	228.08
878.04	228.05
878.35	228.04
878.66	228.05
878.96	228.04
879.27	228.03
879.58	228.02
879.89	228.01
880.20	228.06
880.51	228.05
880.82	228.06
881.12	228.08
881.43	228.04
881.74	228.02
882.05	228.01
882.36	228.02
882.67	228.03
882.97	227.84
883.28	227.83
883.59	227.83
883.90	227.84
884.21	227.86
884.51	227.85
884.82	227.82
885.13	227.82
885.44	227.82
885.74	227.83
886.05	227.82
886.36	227.83
886.67	227.77
886.98	227.86
887.28	227.87
887.59	227.86
887.90	227.87
888.20	227.86
888.51	227.90
888.82	227.87
889.13	227.88
889.43	228.04
889.74	228.03
890.05	228.03
890.35	228.01
890.66	227.98
890.97	227.96
891.28	227.95
891.58	227.95
891.89	227.94
892.20	227.92
892.50	227.90
892.81	227.89
893.12	227.89
893.42	227.80
893.73	227.80
894.04	227.80
894.34	227.82
894.65	227.82
894.95	227.80
895.26	227.81
895.57	227.89
895.87	227.71
896.18	227.74
896.48	227.75
896.79	227.76
897.10	227.78
897.40	227.80
897.71	227.82
898.01	227.80
898.32	227.83
898.63	227.83
898.93	227.84
899.24	227.85
899.54	227.84
899.85	227.83
900.15	227.83
900.46	227.82
900.76	227.83
901.07	227.83
901.38	227.82
901.68	227.84
901.99	227.74
902.29	227.75
902.60	227.74
902.90	227.72
903.21	227.72
903.51	227.70
903.82	227.73
904.12	227.73
904.43	227.75
904.73	227.73
905.03	227.74
905.34	227.91
905.64	227.90
905.95	227.90
906.25	227.90
906.56	227.89
906.86	227.89
907.17	227.87
907.47	227.88
907.77	227.86
908.08	227.83
908.38	227.84
908.69	227.85
908.99	227.88
909.30	227.90
909.60	227.90
909.90	227.89
910.21	227.84
910.51	227.81
910.81	227.81
911.12	227.81
911.42	227.81
911.73	227.62
912.03	227.64
912.33	227.67
912.64	227.66
912.94	227.64
913.24	227.62
913.55	227.60
913.85	227.59
914.15	227.62
914.46	227.64
914.76	227.63
915.06	227.62
915.37	227.58
915.67	227.56
915.97	227.56
916.27	227.53
916.58	227.54
916.88	227.53
917.18	227.52
917.49	227.64
917.79	227.64
918.09	227.67
918.39	227.71
918.70	227.70
919.00	227.71
919.30	227.78
919.60	227.78
919.91	227.77
920.21	227.78
920.51	227.74
920.81	227.73
921.12	227.76
921.42	227.76
921.72	227.77
922.02	227.78
922.32	227.80
922.63	227.81
922.93	227.91
923.23	227.92
923.53	227.90
923.83	227.78
924.13	227.80
924.44	227.79
924.74	227.82
925.04	227.86
925.34	227.86
925.64	227.78
925.94	227.79
926.24	227.89
926.55	227.87
926.85	227.90
927.15	227.90
927.45	227.89
927.75	227.89
928.05	227.90
928.35	227.89
928.65	227.92
928.95	227.93
929.26	227.85
929.56	227.89
929.86	227.91
930.16	227.90
930.46	227.88
930.76	227.89
931.06	227.80
931.36	227.74
931.66	227.77
931.96	227.79
932.26	227.80
932.56	227.72
932.86	227.73
933.16	227.73
933.46	227.71
933.76	227.69
934.06	227.71
934.36	227.77
934.66	227.77
934.96	227.74
935.26	227.74
935.56	227.77
935.86	227.72
936.16	227.69
936.46	227.68
936.76	227.67
937.06	227.65
937.36	227.67
937.66	227.69
937.96	227.68
938.26	227.64
938.56	227.63
938.86	227.64
939.16	227.68
939.46	227.69
939.76	227.71
940.06	227.70
940.35	227.67
940.65	227.58
940.95	227.59
941.25	227.55
941.55	227.53
941.85	227.51
942.15	227.56
942.45	227.61
942.75	227.60
943.04	227.61
943.34	227.64
943.64	227.62
943.94	227.59
944.24	227.59
944.54	227.61
944.84	227.60
945.13	227.57
945.43	227.53
945.73	227.52
946.03	227.51
946.33	227.49
946.62	227.48
946.92	227.48
947.22	227.49
947.52	227.50
947.82	227.52
948.11	227.50
948.41	227.46
948.71	227.41
949.01	227.41
949.31	227.40
949.60	227.38
949.90	227.41
950.20	227.41
950.50	227.40
950.79	227.38
951.09	227.41
951.39	227.41
951.69	227.40
951.98	227.43
952.28	227.44
952.58	227.43
952.87	227.44
953.17	227.46
953.47	227.44
953.76	227.44
954.06	227.40
954.36	227.39
954.66	227.39
954.95	227.44
955.25	227.45
955.55	227.47
955.84	227.45
956.14	227.46
956.44	227.47
956.73	227.45
957.03	227.47
957.32	227.46
957.62	227.46
957.92	227.50
958.21	227.47
958.51	227.68
958.81	227.71
959.10	227.72
959.40	227.76
959.69	227.78
959.99	227.80
960.29	227.81
960.58	227.81
960.88	227.88
961.17	227.86
961.47	227.87
961.76	227.85
962.06	227.88
962.36	227.85
962.65	227.85
962.95	227.87
963.24	227.85
963.54	227.85
963.83	227.86
964.13	227.85
964.42	227.84
964.72	227.69
965.01	227.69
965.31	227.68
965.60	227.63
965.90	227.74
966.19	227.70
966.49	227.71
966.78	227.70
967.08	227.68
967.37	227.68
967.67	227.65
967.96	227.68
968.26	227.67
968.55	227.70
968.85	227.69
969.14	227.68
969.43	227.69
969.73	227.67
970.02	227.66
970.32	227.66
970.61	227.63
970.91	227.58
971.20	227.55
971.49	227.53
971.79	227.55
972.08	227.42
972.38	227.43
972.67	227.42
972.96	227.46
973.26	227.42
973.55	227.47
973.85	227.47
974.14	227.45
974.43	227.46
974.73	227.43
975.02	227.42
975.31	227.42
975.61	227.42
975.90	227.40
976.19	227.39
976.49	227.40
976.78	227.42
977.07	227.42
977.37	227.44
977.66	227.46
977.95	227.43
978.24	227.45
978.54	227.48
978.83	227.47
979.12	227.46
979.42	227.46
979.71	227.42
980.00	227.42
980.29	227.43
980.59	227.40
980.88	227.44
981.17	227.45
981.46	227.45
981.76	227.45
982.05	227.51
982.34	227.52
982.63	227.52
982.93	227.51
983.22	227.56
983.51	227.56
983.80	227.59
984.09	227.61
984.39	227.60
984.68	227.58
984.97	227.58
985.26	227.56
985.55	227.58
985.85	227.55
986.14	227.58
986.43	227.59
986.72	227.58
987.01	227.53
987.30	227.53
987.59	227.51
987.89	227.52
988.18	227.46
988.47	227.45
988.76	227.43
989.05	227.42
989.34	227.39
989.63	227.43
989.92	227.40
990.22	227.38
990.51	227.38
990.80	227.36
991.09	227.39
991.38	227.41
991.67	227.38
991.96	227.37
992.25	227.37
992.54	227.33
992.83	227.34
993.12	227.34
993.41	227.36
993.70	227.44
993.99	227.46
994.28	227.48
994.58	227.50
994.87	227.48
995.16	227.48
995.45	227.46
995.74	227.39
996.03	227.42
996.32	227.43
996.61	227.47
996.90	227.46
997.19	227.44
997.48	227.44
997.77	227.44
998.06	227.45
998.34	227.43
998.63	227.43
998.92	227.44
999.21	227.47
999.50	227.47
999.79	227.41
1000.08	227.40
1000.37	227.41
1000.66	227.40
1000.95	227.44
1001.24	227.46
1001.53	227.49
1001.82	227.49
1002.11	227.45
1002.40	227.47
1002.68	227.51
1002.97	227.64
1003.26	227.62
1003.55	227.59
1003.84	227.61
1004.13	227.67
1004.42	227.65
1004.71	227.66
1004.99	227.64
1005.28	227.68
1005.57	227.67
1005.86	227.65
1006.15	227.64
1006.44	227.61
1006.72	227.63
1007.01	227.60
1007.30	227.60
1007.59	227.59
1007.88	227.59
1008.17	227.60
1008.45	227.56
1008.74	227.49
1009.03	227.40
1009.32	227.41
1009.60	227.41
1009.89	227.40
1010.18	227.33
1010.47	227.33
1010.76	227.32
1011.04	227.32
1011.33	227.32
1011.62	227.33
1011.91	227.34
1012.19	227.35
1012.48	227.36
1012.77	227.36
1013.05	227.42
1013.34	227.42
1013.63	227.41
1013.92	227.43
1014.20	227.41
1014.49	227.43
1014.78	227.45
1015.06	227.40
1015.35	227.39
1015.64	227.42
1015.92	227.45
1016.21	227.46
1016.50	227.46
1016.78	227.49
1017.07	227.50
1017.36	227.46
1017.64	227.43
1017.93	227.45
1018.22	227.43
1018.50	227.43
1018.79	227.41
1019.08	227.35
1019.36	227.36
1019.65	227.35
1019.93	227.39
1020.22	227.42
1020.51	227.50
1020.79	227.47
1021.08	227.09
1021.36	227.16
1021.65	227.33
1021.94	227.36
1022.22	227.54
1022.51	227.13
1022.79	228.21
1023.08	227.64
1023.36	229.45
1023.65	226.89
>>>>>End Processed Spectral Data<<<<<
