SpectraSuite Data File
++++++++++++++++++++++++++++++++++++
Date: Tue Oct 06 18:44:55 EDT 2015
User: lab3
Dark Spectrum Present: No
Reference Spectrum Present: No
Number of Sampled Component Spectra: 1
Spectrometers: USB2E7196
Integration Time (usec): 66000 (USB2E7196)
Spectra Averaged: 3000 (USB2E7196)
Boxcar Smoothing: 10 (USB2E7196)
Correct for Electrical Dark: No (USB2E7196)
Strobe/Lamp Enabled: No (USB2E7196)
Correct for Detector Non-linearity: No (USB2E7196)
Correct for Stray Light: No (USB2E7196)
Number of Pixels in Processed Spectrum: 2048
>>>>>Begin Processed Spectral Data<<<<<
339.09	0.00
339.48	215.12
339.86	216.63
340.24	218.02
340.63	219.37
341.01	223.47
341.39	222.12
341.78	223.50
342.16	225.00
342.54	225.20
342.93	213.66
343.31	224.45
343.69	225.00
344.07	225.46
344.46	225.90
344.84	226.31
345.22	226.51
345.60	226.79
345.99	227.00
346.37	227.13
346.75	227.25
347.13	227.34
347.52	227.43
347.90	227.55
348.28	227.60
348.66	227.69
349.05	227.68
349.43	227.76
349.81	227.83
350.19	227.90
350.57	227.99
350.96	228.09
351.34	228.19
351.72	228.29
352.10	228.41
352.48	228.49
352.87	228.53
353.25	228.60
353.63	228.66
354.01	228.71
354.39	228.79
354.77	228.86
355.15	228.98
355.54	229.02
355.92	229.02
356.30	229.10
356.68	229.27
357.06	229.35
357.44	229.38
357.82	229.43
358.20	229.64
358.58	229.70
358.97	229.76
359.35	229.86
359.73	229.95
360.11	230.00
360.49	230.06
360.87	230.12
361.25	230.19
361.63	230.29
362.01	230.36
362.39	230.38
362.77	230.44
363.15	230.46
363.53	230.49
363.91	230.54
364.29	230.56
364.67	230.42
365.05	230.44
365.43	230.48
365.81	230.52
366.19	230.47
366.57	230.55
366.95	230.55
367.33	230.51
367.71	230.50
368.09	230.55
368.47	230.54
368.85	230.53
369.23	230.55
369.61	230.47
369.99	230.51
370.37	230.52
370.75	230.63
371.13	230.60
371.51	230.55
371.89	230.53
372.27	230.51
372.65	230.50
373.03	230.46
373.41	230.41
373.78	230.36
374.16	230.23
374.54	230.13
374.92	230.07
375.30	230.04
375.68	229.96
376.06	229.91
376.44	229.86
376.82	229.82
377.19	229.77
377.57	229.72
377.95	229.61
378.33	229.55
378.71	229.34
379.09	229.31
379.47	229.29
379.84	229.23
380.22	229.17
380.60	229.09
380.98	229.05
381.36	229.00
381.73	228.94
382.11	228.93
382.49	228.89
382.87	228.83
383.25	228.79
383.62	228.96
384.00	228.88
384.38	228.85
384.76	228.86
385.13	228.88
385.51	228.84
385.89	228.80
386.27	228.77
386.64	228.77
387.02	228.72
387.40	228.68
387.78	228.66
388.15	228.64
388.53	228.62
388.91	228.59
389.29	228.56
389.66	228.57
390.04	228.53
390.42	228.55
390.79	228.55
391.17	228.54
391.55	228.33
391.92	228.33
392.30	228.34
392.68	228.30
393.05	228.27
393.43	228.29
393.81	228.30
394.18	228.28
394.56	228.29
394.94	228.35
395.31	228.35
395.69	228.43
396.06	228.48
396.44	228.52
396.82	228.54
397.19	228.68
397.57	228.70
397.95	228.76
398.32	228.76
398.70	228.83
399.07	228.93
399.45	228.99
399.82	229.05
400.20	229.11
400.58	229.20
400.95	229.22
401.33	229.35
401.70	229.57
402.08	229.71
402.45	229.83
402.83	229.99
403.20	230.16
403.58	230.29
403.95	230.49
404.33	230.71
404.71	230.92
405.08	231.22
405.46	231.46
405.83	231.73
406.21	232.02
406.58	232.34
406.96	232.65
407.33	233.02
407.70	233.44
408.08	234.00
408.45	234.49
408.83	235.03
409.20	235.52
409.58	235.96
409.95	236.58
410.33	237.24
410.70	237.87
411.08	238.59
411.45	239.39
411.82	240.19
412.20	241.10
412.57	242.18
412.95	243.03
413.32	244.15
413.69	245.30
414.07	246.53
414.44	247.86
414.82	249.22
415.19	250.81
415.56	252.43
415.94	254.12
416.31	256.01
416.68	257.91
417.06	260.12
417.43	262.18
417.81	264.56
418.18	266.98
418.55	269.62
418.93	272.37
419.30	275.24
419.67	278.28
420.04	281.40
420.42	284.67
420.79	288.44
421.16	292.25
421.54	296.10
421.91	300.13
422.28	304.32
422.66	308.83
423.03	313.12
423.40	317.62
423.77	322.42
424.15	327.35
424.52	332.44
424.89	337.95
425.26	343.42
425.64	348.49
426.01	354.19
426.38	360.00
426.75	365.98
427.13	372.11
427.50	378.53
427.87	385.17
428.24	391.87
428.61	398.28
428.99	405.19
429.36	412.77
429.73	420.01
430.10	427.23
430.47	434.61
430.85	442.23
431.22	450.34
431.59	458.69
431.96	466.83
432.33	475.86
432.70	484.45
433.08	494.63
433.45	504.22
433.82	513.69
434.19	524.30
434.56	534.77
434.93	544.91
435.30	554.95
435.68	566.34
436.05	577.48
436.42	588.64
436.79	598.84
437.16	609.93
437.53	621.78
437.90	633.63
438.27	645.27
438.64	657.85
439.01	669.28
439.38	679.75
439.75	689.89
440.13	701.44
440.50	712.44
440.87	721.24
441.24	730.94
441.61	741.57
441.98	749.44
442.35	758.78
442.72	768.31
443.09	777.38
443.46	783.33
443.83	787.88
444.20	791.68
444.57	797.13
444.94	800.40
445.31	803.82
445.68	806.79
446.05	809.08
446.42	808.94
446.79	808.57
447.16	808.31
447.53	808.13
447.90	804.92
448.27	801.86
448.64	796.90
449.01	793.54
449.37	786.37
449.74	779.85
450.11	771.38
450.48	762.02
450.85	752.67
451.22	744.63
451.59	736.68
451.96	729.52
452.33	719.07
452.70	709.80
453.07	698.48
453.43	687.18
453.80	676.12
454.17	665.55
454.54	655.79
454.91	644.74
455.28	634.31
455.65	624.47
456.02	614.02
456.38	605.63
456.75	594.86
457.12	586.16
457.49	577.38
457.86	569.07
458.23	561.75
458.59	553.67
458.96	545.38
459.33	538.12
459.70	530.71
460.07	525.04
460.43	518.34
460.80	512.11
461.17	506.70
461.54	500.83
461.91	495.33
462.27	489.73
462.64	485.15
463.01	479.92
463.38	474.63
463.74	469.87
464.11	465.63
464.48	461.81
464.85	457.69
465.21	454.54
465.58	451.03
465.95	447.06
466.32	443.90
466.68	440.80
467.05	437.66
467.42	434.61
467.78	431.37
468.15	428.39
468.52	426.19
468.88	423.28
469.25	420.63
469.62	418.51
469.98	416.23
470.35	414.18
470.72	412.33
471.08	410.48
471.45	408.91
471.82	407.17
472.18	405.34
472.55	404.14
472.92	402.65
473.28	401.50
473.65	400.27
474.02	399.07
474.38	398.07
474.75	397.49
475.11	396.68
475.48	396.30
475.85	395.87
476.21	395.61
476.58	395.43
476.94	395.60
477.31	395.64
477.67	395.70
478.04	396.00
478.41	396.42
478.77	397.00
479.14	397.37
479.50	398.11
479.87	399.08
480.23	400.02
480.60	400.93
480.96	401.84
481.33	403.23
481.69	404.60
482.06	405.95
482.42	407.18
482.79	408.72
483.15	410.53
483.52	412.57
483.88	414.50
484.25	416.57
484.61	418.72
484.98	421.05
485.34	423.68
485.71	426.43
486.07	429.37
486.44	432.25
486.80	435.50
487.17	438.86
487.53	442.49
487.90	446.27
488.26	450.41
488.62	454.76
488.99	459.09
489.35	463.65
489.72	468.54
490.08	473.70
490.44	478.96
490.81	484.45
491.17	490.11
491.54	496.18
491.90	502.36
492.26	508.98
492.63	515.92
492.99	523.16
493.36	530.54
493.72	538.31
494.08	546.27
494.45	554.61
494.81	563.33
495.17	572.31
495.54	581.77
495.90	591.64
496.26	601.71
496.63	612.05
496.99	622.80
497.35	634.02
497.72	645.53
498.08	657.35
498.44	669.47
498.80	682.27
499.17	695.35
499.53	708.88
499.89	722.84
500.26	736.99
500.62	751.47
500.98	766.79
501.34	782.10
501.71	798.23
502.07	814.65
502.43	831.51
502.79	848.56
503.16	866.11
503.52	883.85
503.88	902.00
504.24	920.59
504.60	939.42
504.97	958.87
505.33	978.78
505.69	999.72
506.05	1020.90
506.41	1041.92
506.78	1063.12
507.14	1084.88
507.50	1107.08
507.86	1129.68
508.22	1152.51
508.59	1175.22
508.95	1198.98
509.31	1223.19
509.67	1247.98
510.03	1272.69
510.39	1297.33
510.75	1322.05
511.12	1347.21
511.48	1372.49
511.84	1397.81
512.20	1423.47
512.56	1450.16
512.92	1476.64
513.28	1502.54
513.64	1528.84
514.00	1555.50
514.37	1582.37
514.73	1609.31
515.09	1635.58
515.45	1662.16
515.81	1688.90
516.17	1715.40
516.53	1741.27
516.89	1766.98
517.25	1792.99
517.61	1818.80
517.97	1845.28
518.33	1871.16
518.69	1896.85
519.05	1923.05
519.41	1949.37
519.77	1975.67
520.13	2000.46
520.49	2025.37
520.85	2050.60
521.21	2075.23
521.57	2100.15
521.93	2124.18
522.29	2148.78
522.65	2173.25
523.01	2197.37
523.37	2220.73
523.73	2244.80
524.09	2268.68
524.45	2292.20
524.81	2315.05
525.17	2337.75
525.53	2359.71
525.89	2382.05
526.25	2404.06
526.61	2424.40
526.97	2444.83
527.33	2465.11
527.68	2485.13
528.04	2504.79
528.40	2523.19
528.76	2541.82
529.12	2560.04
529.48	2578.76
529.84	2594.73
530.20	2611.12
530.56	2626.70
530.91	2642.61
531.27	2657.91
531.63	2672.16
531.99	2686.29
532.35	2700.13
532.71	2713.52
533.07	2727.16
533.42	2738.93
533.78	2750.97
534.14	2763.99
534.50	2775.80
534.86	2788.06
535.21	2798.38
535.57	2808.49
535.93	2818.40
536.29	2826.48
536.65	2834.49
537.00	2841.04
537.36	2849.05
537.72	2856.10
538.08	2862.68
538.44	2868.08
538.79	2873.15
539.15	2876.90
539.51	2879.85
539.87	2881.56
540.22	2881.88
540.58	2882.44
540.94	2883.90
541.29	2884.03
541.65	2882.97
542.01	2881.49
542.37	2878.45
542.72	2876.87
543.08	2873.62
543.44	2870.66
543.79	2867.39
544.15	2863.31
544.51	2859.41
544.87	2854.45
545.22	2848.51
545.58	2842.47
545.94	2836.56
546.29	2829.17
546.65	2822.09
547.01	2815.16
547.36	2808.71
547.72	2802.33
548.07	2794.29
548.43	2785.12
548.79	2775.81
549.14	2766.69
549.50	2757.68
549.86	2747.71
550.21	2736.20
550.57	2725.89
550.92	2713.77
551.28	2702.13
551.64	2690.75
551.99	2679.01
552.35	2666.87
552.70	2654.64
553.06	2642.80
553.41	2630.52
553.77	2618.13
554.13	2605.71
554.48	2592.15
554.84	2577.86
555.19	2564.01
555.55	2550.05
555.90	2536.57
556.26	2523.30
556.61	2508.92
556.97	2493.60
557.32	2478.79
557.68	2464.31
558.03	2449.50
558.39	2435.67
558.74	2422.36
559.10	2407.16
559.45	2392.22
559.81	2377.97
560.16	2363.32
560.52	2348.47
560.87	2333.81
561.23	2318.76
561.58	2304.34
561.94	2289.39
562.29	2273.92
562.64	2258.64
563.00	2243.49
563.35	2228.39
563.71	2213.03
564.06	2197.79
564.42	2183.08
564.77	2168.41
565.12	2153.41
565.48	2138.20
565.83	2123.19
566.19	2108.12
566.54	2093.34
566.89	2078.03
567.25	2062.63
567.60	2048.11
567.96	2032.74
568.31	2016.24
568.66	2000.72
569.02	1985.63
569.37	1971.17
569.72	1957.33
570.08	1943.01
570.43	1928.07
570.78	1913.04
571.14	1897.76
571.49	1882.57
571.84	1867.66
572.20	1851.53
572.55	1836.28
572.90	1821.07
573.26	1805.84
573.61	1790.02
573.96	1774.74
574.31	1759.25
574.67	1743.60
575.02	1727.61
575.37	1711.76
575.72	1696.64
576.08	1681.14
576.43	1665.03
576.78	1649.10
577.13	1633.38
577.49	1617.89
577.84	1602.87
578.19	1587.35
578.54	1571.93
578.90	1556.40
579.25	1540.77
579.60	1526.32
579.95	1511.55
580.30	1496.71
580.66	1481.62
581.01	1466.59
581.36	1451.73
581.71	1437.71
582.06	1423.62
582.42	1409.39
582.77	1395.60
583.12	1382.01
583.47	1368.40
583.82	1354.98
584.17	1341.11
584.53	1327.30
584.88	1313.73
585.23	1300.03
585.58	1286.75
585.93	1273.37
586.28	1261.01
586.63	1248.46
586.98	1235.53
587.34	1222.93
587.69	1210.16
588.04	1197.76
588.39	1185.64
588.74	1173.08
589.09	1160.66
589.44	1147.98
589.79	1135.87
590.14	1123.85
590.49	1111.88
590.84	1100.14
591.19	1088.71
591.54	1077.37
591.89	1065.61
592.25	1054.27
592.60	1042.78
592.95	1031.46
593.30	1020.51
593.65	1009.24
594.00	998.24
594.35	988.12
594.70	977.34
595.05	967.19
595.40	956.82
595.75	946.32
596.10	936.45
596.45	926.57
596.80	917.05
597.15	907.51
597.50	897.95
597.85	888.61
598.19	879.31
598.54	870.02
598.89	861.24
599.24	852.88
599.59	844.32
599.94	836.40
600.29	828.45
600.64	820.33
600.99	812.08
601.34	804.11
601.69	795.67
602.04	788.09
602.39	780.39
602.74	772.91
603.08	765.58
603.43	758.21
603.78	750.81
604.13	743.48
604.48	736.23
604.83	729.19
605.18	722.25
605.53	715.44
605.87	708.57
606.22	701.83
606.57	694.99
606.92	688.07
607.27	681.20
607.62	674.53
607.96	668.13
608.31	662.20
608.66	656.20
609.01	650.43
609.36	644.63
609.70	638.78
610.05	632.95
610.40	627.30
610.75	621.63
611.10	616.17
611.44	610.71
611.79	605.36
612.14	599.94
612.49	594.63
612.83	589.56
613.18	584.56
613.53	579.54
613.88	574.71
614.22	570.20
614.57	565.59
614.92	561.08
615.27	556.69
615.61	552.19
615.96	547.71
616.31	543.28
616.65	538.97
617.00	534.81
617.35	530.67
617.70	526.56
618.04	522.58
618.39	518.70
618.74	515.06
619.08	511.39
619.43	507.82
619.78	504.19
620.12	500.56
620.47	497.13
620.82	493.80
621.16	490.47
621.51	487.20
621.85	483.93
622.20	480.74
622.55	477.50
622.89	474.32
623.24	471.35
623.59	468.39
623.93	465.52
624.28	462.80
624.62	460.27
624.97	457.74
625.32	455.11
625.66	452.46
626.01	449.79
626.35	447.26
626.70	444.68
627.04	442.30
627.39	439.88
627.73	437.54
628.08	435.24
628.43	432.96
628.77	430.61
629.12	428.39
629.46	426.26
629.81	424.28
630.15	422.23
630.50	420.18
630.84	418.18
631.19	416.23
631.53	414.34
631.88	412.29
632.22	410.34
632.57	408.66
632.91	406.95
633.26	405.30
633.60	403.68
633.95	402.13
634.29	400.47
634.64	398.87
634.98	397.14
635.32	395.60
635.67	394.20
636.01	392.79
636.36	391.43
636.70	390.14
637.05	388.70
637.39	387.41
637.73	386.11
638.08	384.89
638.42	383.70
638.77	382.38
639.11	381.03
639.45	379.72
639.80	378.37
640.14	377.09
640.49	375.81
640.83	374.54
641.17	373.31
641.52	372.11
641.86	370.94
642.20	369.94
642.55	368.74
642.89	367.56
643.23	366.47
643.58	365.47
643.92	364.33
644.26	363.29
644.61	362.26
644.95	361.21
645.29	360.09
645.64	358.94
645.98	357.93
646.32	357.02
646.66	356.05
647.01	355.12
647.35	354.28
647.69	353.40
648.04	352.58
648.38	351.70
648.72	350.87
649.06	350.03
649.41	349.13
649.75	348.30
650.09	347.51
650.43	346.68
650.78	345.84
651.12	345.03
651.46	344.23
651.80	343.47
652.14	342.73
652.49	342.06
652.83	341.33
653.17	340.56
653.51	339.83
653.85	339.20
654.20	338.52
654.54	337.74
654.88	337.00
655.22	336.33
655.56	335.63
655.90	334.96
656.25	334.30
656.59	333.66
656.93	333.06
657.27	332.49
657.61	331.87
657.95	331.28
658.29	330.68
658.64	330.09
658.98	329.45
659.32	328.84
659.66	328.25
660.00	327.71
660.34	327.17
660.68	326.57
661.02	325.91
661.36	325.31
661.70	324.75
662.05	324.20
662.39	323.66
662.73	323.19
663.07	322.77
663.41	322.29
663.75	321.76
664.09	321.25
664.43	320.63
664.77	320.11
665.11	319.52
665.45	319.00
665.79	318.51
666.13	317.97
666.47	317.44
666.81	316.88
667.15	316.28
667.49	315.82
667.83	315.41
668.17	314.97
668.51	314.55
668.85	314.15
669.19	313.79
669.53	313.26
669.87	312.72
670.21	312.18
670.55	311.66
670.89	311.27
671.23	310.83
671.57	310.44
671.91	310.08
672.25	309.74
672.58	309.41
672.92	308.97
673.26	308.64
673.60	308.29
673.94	307.94
674.28	307.62
674.62	307.25
674.96	306.81
675.30	306.42
675.64	305.99
675.97	305.54
676.31	305.08
676.65	304.67
676.99	304.36
677.33	303.93
677.67	303.56
678.01	303.09
678.34	302.67
678.68	302.30
679.02	301.86
679.36	301.42
679.70	300.98
680.04	300.61
680.37	300.20
680.71	299.83
681.05	299.47
681.39	299.06
681.73	298.61
682.06	298.21
682.40	297.84
682.74	297.50
683.08	297.20
683.42	296.83
683.75	296.50
684.09	296.05
684.43	295.67
684.77	295.27
685.10	294.91
685.44	294.53
685.78	294.14
686.12	293.75
686.45	293.35
686.79	292.93
687.13	292.53
687.46	292.10
687.80	291.70
688.14	291.24
688.48	290.84
688.81	290.44
689.15	290.09
689.49	289.66
689.82	289.23
690.16	288.71
690.50	288.27
690.83	287.84
691.17	287.40
691.51	286.99
691.84	286.62
692.18	286.19
692.52	285.74
692.85	285.31
693.19	284.96
693.52	284.54
693.86	284.12
694.20	283.70
694.53	283.30
694.87	282.84
695.21	282.42
695.54	281.99
695.88	281.56
696.21	281.08
696.55	280.65
696.88	280.23
697.22	279.83
697.56	279.44
697.89	278.99
698.23	278.59
698.56	278.17
698.90	277.77
699.23	277.33
699.57	276.95
699.90	276.54
700.24	276.09
700.58	275.71
700.91	275.37
701.25	275.13
701.58	274.82
701.92	274.49
702.25	274.14
702.59	273.75
702.92	273.36
703.26	272.98
703.59	272.60
703.93	272.35
704.26	271.98
704.60	271.60
704.93	271.22
705.26	270.82
705.60	270.48
705.93	270.06
706.27	269.76
706.60	269.43
706.94	269.13
707.27	268.74
707.61	268.36
707.94	267.95
708.27	267.42
708.61	266.98
708.94	266.57
709.28	266.20
709.61	265.84
709.94	265.53
710.28	265.20
710.61	264.88
710.95	264.38
711.28	264.16
711.61	263.81
711.95	263.51
712.28	263.18
712.61	262.82
712.95	262.59
713.28	262.32
713.61	261.96
713.95	261.58
714.28	261.27
714.61	260.94
714.95	260.63
715.28	260.32
715.61	260.03
715.95	259.76
716.28	259.45
716.61	259.18
716.95	258.85
717.28	258.55
717.61	258.26
717.94	257.98
718.28	257.57
718.61	257.29
718.94	256.97
719.27	256.70
719.61	256.45
719.94	256.14
720.27	255.79
720.60	255.52
720.94	255.26
721.27	255.01
721.60	254.78
721.93	254.50
722.27	254.29
722.60	254.03
722.93	253.75
723.26	253.52
723.59	253.24
723.93	253.02
724.26	252.79
724.59	252.54
724.92	252.33
725.25	252.15
725.59	251.92
725.92	251.71
726.25	251.48
726.58	251.24
726.91	251.00
727.24	250.79
727.57	250.57
727.91	250.31
728.24	250.12
728.57	249.88
728.90	249.69
729.23	249.42
729.56	249.30
729.89	249.09
730.22	248.87
730.55	248.67
730.89	248.46
731.22	248.25
731.55	248.05
731.88	247.85
732.21	247.62
732.54	247.42
732.87	247.23
733.20	247.06
733.53	246.89
733.86	246.73
734.19	246.52
734.52	246.36
734.85	246.32
735.18	246.11
735.51	246.00
735.84	245.84
736.17	245.73
736.50	245.46
736.83	245.49
737.16	245.33
737.49	245.16
737.82	244.98
738.15	244.84
738.48	244.67
738.81	244.50
739.14	244.31
739.47	244.14
739.80	243.97
740.13	243.83
740.46	243.64
740.79	243.45
741.12	243.28
741.45	243.09
741.78	242.83
742.11	242.72
742.44	242.51
742.77	242.37
743.10	242.18
743.43	242.03
743.75	241.69
744.08	241.81
744.41	241.65
744.74	241.51
745.07	241.33
745.40	241.23
745.73	241.16
746.06	241.03
746.39	240.92
746.71	240.77
747.04	240.61
747.37	240.47
747.70	240.37
748.03	240.25
748.36	240.15
748.68	240.01
749.01	239.84
749.34	239.73
749.67	239.60
750.00	239.51
750.33	239.52
750.65	239.41
750.98	239.03
751.31	238.93
751.64	238.82
751.97	238.80
752.29	238.66
752.62	238.47
752.95	238.34
753.28	238.20
753.60	238.08
753.93	238.01
754.26	237.92
754.59	237.75
754.91	237.62
755.24	237.49
755.57	237.39
755.90	237.27
756.22	237.15
756.55	237.01
756.88	236.87
757.20	236.64
757.53	236.49
757.86	236.38
758.19	236.29
758.51	236.18
758.84	236.00
759.17	235.88
759.49	235.80
759.82	235.80
760.15	235.72
760.47	235.63
760.80	235.49
761.13	235.42
761.45	235.34
761.78	235.25
762.11	235.18
762.43	235.07
762.76	234.98
763.08	234.92
763.41	234.85
763.74	234.78
764.06	234.70
764.39	234.62
764.71	234.55
765.04	234.45
765.37	234.36
765.69	234.28
766.02	234.21
766.34	234.12
766.67	233.98
767.00	233.94
767.32	233.95
767.65	233.99
767.97	233.91
768.30	233.85
768.62	233.78
768.95	233.69
769.27	233.62
769.60	233.57
769.92	233.47
770.25	233.38
770.57	233.28
770.90	233.22
771.22	233.15
771.55	233.09
771.87	233.04
772.20	232.98
772.52	233.08
772.85	233.23
773.17	233.18
773.50	233.11
773.82	233.03
774.15	232.89
774.47	232.72
774.80	232.64
775.12	232.59
775.45	232.54
775.77	232.50
776.09	232.46
776.42	232.42
776.74	232.43
777.07	232.38
777.39	232.35
777.72	232.29
778.04	232.27
778.36	232.21
778.69	232.16
779.01	232.13
779.33	231.92
779.66	231.68
779.98	231.62
780.31	231.58
780.63	231.61
780.95	231.61
781.28	231.57
781.60	231.52
781.92	231.48
782.25	231.45
782.57	231.41
782.89	231.36
783.22	231.32
783.54	231.24
783.86	231.22
784.19	231.17
784.51	231.20
784.83	231.14
785.16	231.11
785.48	231.08
785.80	231.05
786.12	231.03
786.45	231.01
786.77	230.99
787.09	230.95
787.42	230.85
787.74	230.83
788.06	230.81
788.38	230.78
788.71	230.73
789.03	230.72
789.35	230.70
789.67	230.65
789.99	230.64
790.32	230.60
790.64	230.59
790.96	230.73
791.28	230.64
791.61	230.60
791.93	230.59
792.25	230.55
792.57	230.65
792.89	230.60
793.21	230.58
793.54	230.55
793.86	230.51
794.18	230.49
794.50	230.44
794.82	230.41
795.14	230.41
795.47	230.42
795.79	230.40
796.11	230.33
796.43	230.31
796.75	230.28
797.07	230.26
797.39	230.22
797.71	230.05
798.04	230.05
798.36	230.04
798.68	230.02
799.00	230.01
799.32	229.90
799.64	229.91
799.96	229.89
800.28	229.91
800.60	229.88
800.92	229.87
801.24	229.85
801.56	229.84
801.89	229.81
802.21	229.79
802.53	229.74
802.85	229.77
803.17	229.84
803.49	229.79
803.81	229.76
804.13	229.73
804.45	229.70
804.77	229.68
805.09	229.66
805.41	229.62
805.73	229.57
806.05	229.51
806.37	229.47
806.69	229.44
807.01	229.40
807.33	229.40
807.65	229.32
807.97	229.38
808.28	229.34
808.60	229.32
808.92	229.28
809.24	229.37
809.56	229.32
809.88	229.24
810.20	229.24
810.52	229.27
810.84	229.23
811.16	229.19
811.48	229.17
811.80	229.21
812.12	229.20
812.43	229.23
812.75	229.22
813.07	229.19
813.39	229.19
813.71	229.15
814.03	229.11
814.35	229.11
814.67	229.03
814.98	229.00
815.30	228.99
815.62	228.95
815.94	228.82
816.26	228.83
816.58	228.78
816.89	228.78
817.21	228.72
817.53	228.72
817.85	228.72
818.17	228.71
818.48	228.63
818.80	228.66
819.12	228.62
819.44	228.57
819.76	228.54
820.07	228.53
820.39	228.51
820.71	228.52
821.03	228.52
821.34	228.50
821.66	228.51
821.98	228.52
822.30	228.51
822.61	228.61
822.93	228.56
823.25	228.56
823.57	228.53
823.88	228.54
824.20	228.53
824.52	228.54
824.83	228.52
825.15	228.49
825.47	228.46
825.79	228.47
826.10	228.46
826.42	228.44
826.74	228.45
827.05	228.44
827.37	228.43
827.69	228.41
828.00	228.41
828.32	228.41
828.64	228.37
828.95	228.46
829.27	228.40
829.58	228.40
829.90	228.42
830.22	228.43
830.53	228.40
830.85	228.37
831.17	228.31
831.48	228.31
831.80	228.32
832.11	228.30
832.43	228.27
832.75	228.27
833.06	228.38
833.38	228.32
833.69	228.31
834.01	228.32
834.32	228.30
834.64	228.27
834.96	228.27
835.27	228.27
835.59	228.19
835.90	228.16
836.22	228.16
836.53	228.12
836.85	228.10
837.16	228.27
837.48	228.27
837.79	228.33
838.11	228.33
838.42	228.33
838.74	228.34
839.05	228.32
839.37	228.31
839.68	228.19
840.00	228.19
840.31	228.21
840.63	228.18
840.94	228.16
841.26	228.15
841.57	228.13
841.88	228.14
842.20	228.12
842.51	228.09
842.83	228.08
843.14	228.24
843.46	228.22
843.77	228.11
844.08	228.10
844.40	228.04
844.71	228.02
845.03	228.00
845.34	227.98
845.65	227.99
845.97	227.98
846.28	227.99
846.60	227.99
846.91	227.96
847.22	227.95
847.54	227.98
847.85	227.99
848.16	227.98
848.48	227.94
848.79	228.00
849.10	228.02
849.42	228.03
849.73	227.86
850.04	227.86
850.36	227.79
850.67	227.82
850.98	227.82
851.30	227.84
851.61	227.84
851.92	227.82
852.23	227.87
852.55	227.88
852.86	227.88
853.17	227.90
853.49	227.93
853.80	227.97
854.11	227.97
854.42	227.99
854.74	227.97
855.05	227.97
855.36	227.88
855.67	227.88
855.99	227.88
856.30	228.08
856.61	228.08
856.92	228.08
857.23	228.08
857.55	228.06
857.86	228.04
858.17	228.06
858.48	228.03
858.79	227.99
859.11	228.00
859.42	227.98
859.73	227.95
860.04	227.94
860.35	227.88
860.66	227.82
860.98	227.81
861.29	227.84
861.60	227.82
861.91	227.87
862.22	227.83
862.53	227.80
862.84	227.59
863.16	227.62
863.47	227.59
863.78	227.56
864.09	227.57
864.40	227.58
864.71	227.58
865.02	227.61
865.33	227.59
865.64	227.56
865.95	227.56
866.27	227.67
866.58	227.65
866.89	227.68
867.20	227.68
867.51	227.65
867.82	227.62
868.13	227.68
868.44	227.63
868.75	227.67
869.06	227.69
869.37	227.71
869.68	227.67
869.99	227.70
870.30	227.71
870.61	227.73
870.92	227.70
871.23	227.68
871.54	227.70
871.85	227.74
872.16	227.76
872.47	227.74
872.78	227.64
873.09	227.66
873.40	227.64
873.71	227.66
874.02	227.67
874.33	227.65
874.64	227.60
874.95	227.64
875.26	227.59
875.56	227.58
875.87	227.56
876.18	227.55
876.49	227.72
876.80	227.70
877.11	227.66
877.42	227.67
877.73	227.68
878.04	227.65
878.35	227.65
878.66	227.65
878.96	227.64
879.27	227.64
879.58	227.63
879.89	227.62
880.20	227.67
880.51	227.66
880.82	227.67
881.12	227.69
881.43	227.65
881.74	227.63
882.05	227.63
882.36	227.65
882.67	227.66
882.97	227.46
883.28	227.45
883.59	227.45
883.90	227.47
884.21	227.49
884.51	227.48
884.82	227.46
885.13	227.46
885.44	227.46
885.74	227.46
886.05	227.46
886.36	227.46
886.67	227.39
886.98	227.48
887.28	227.49
887.59	227.49
887.90	227.50
888.20	227.50
888.51	227.53
888.82	227.50
889.13	227.53
889.43	227.69
889.74	227.68
890.05	227.68
890.35	227.66
890.66	227.63
890.97	227.60
891.28	227.59
891.58	227.59
891.89	227.59
892.20	227.58
892.50	227.55
892.81	227.54
893.12	227.54
893.42	227.46
893.73	227.47
894.04	227.47
894.34	227.48
894.65	227.48
894.95	227.46
895.26	227.47
895.57	227.54
895.87	227.36
896.18	227.39
896.48	227.40
896.79	227.40
897.10	227.43
897.40	227.45
897.71	227.46
898.01	227.44
898.32	227.46
898.63	227.45
898.93	227.46
899.24	227.46
899.54	227.45
899.85	227.44
900.15	227.42
900.46	227.41
900.76	227.43
901.07	227.43
901.38	227.42
901.68	227.43
901.99	227.33
902.29	227.34
902.60	227.32
902.90	227.31
903.21	227.30
903.51	227.28
903.82	227.32
904.12	227.32
904.43	227.33
904.73	227.31
905.03	227.32
905.34	227.49
905.64	227.48
905.95	227.48
906.25	227.48
906.56	227.48
906.86	227.48
907.17	227.45
907.47	227.45
907.77	227.44
908.08	227.41
908.38	227.42
908.69	227.44
908.99	227.46
909.30	227.47
909.60	227.47
909.90	227.47
910.21	227.41
910.51	227.38
910.81	227.38
911.12	227.39
911.42	227.39
911.73	227.21
912.03	227.21
912.33	227.25
912.64	227.23
912.94	227.22
913.24	227.18
913.55	227.17
913.85	227.16
914.15	227.18
914.46	227.20
914.76	227.18
915.06	227.17
915.37	227.14
915.67	227.12
915.97	227.12
916.27	227.10
916.58	227.11
916.88	227.12
917.18	227.10
917.49	227.21
917.79	227.20
918.09	227.23
918.39	227.27
918.70	227.26
919.00	227.27
919.30	227.36
919.60	227.35
919.91	227.33
920.21	227.35
920.51	227.31
920.81	227.30
921.12	227.33
921.42	227.32
921.72	227.32
922.02	227.33
922.32	227.36
922.63	227.37
922.93	227.47
923.23	227.47
923.53	227.46
923.83	227.34
924.13	227.36
924.44	227.36
924.74	227.38
925.04	227.42
925.34	227.42
925.64	227.34
925.94	227.35
926.24	227.45
926.55	227.44
926.85	227.47
927.15	227.47
927.45	227.47
927.75	227.46
928.05	227.47
928.35	227.46
928.65	227.48
928.95	227.49
929.26	227.41
929.56	227.44
929.86	227.47
930.16	227.45
930.46	227.44
930.76	227.45
931.06	227.36
931.36	227.31
931.66	227.34
931.96	227.36
932.26	227.37
932.56	227.29
932.86	227.31
933.16	227.31
933.46	227.29
933.76	227.27
934.06	227.30
934.36	227.36
934.66	227.36
934.96	227.33
935.26	227.34
935.56	227.37
935.86	227.32
936.16	227.29
936.46	227.28
936.76	227.27
937.06	227.24
937.36	227.26
937.66	227.26
937.96	227.25
938.26	227.21
938.56	227.20
938.86	227.21
939.16	227.24
939.46	227.25
939.76	227.27
940.06	227.27
940.35	227.23
940.65	227.14
940.95	227.15
941.25	227.11
941.55	227.09
941.85	227.07
942.15	227.11
942.45	227.16
942.75	227.16
943.04	227.17
943.34	227.20
943.64	227.19
943.94	227.17
944.24	227.16
944.54	227.18
944.84	227.17
945.13	227.15
945.43	227.11
945.73	227.10
946.03	227.08
946.33	227.07
946.62	227.06
946.92	227.06
947.22	227.06
947.52	227.08
947.82	227.10
948.11	227.09
948.41	227.05
948.71	226.99
949.01	227.01
949.31	226.99
949.60	226.98
949.90	227.01
950.20	227.00
950.50	226.99
950.79	226.98
951.09	227.01
951.39	227.01
951.69	226.99
951.98	227.03
952.28	227.04
952.58	227.04
952.87	227.04
953.17	227.07
953.47	227.04
953.76	227.04
954.06	227.01
954.36	226.99
954.66	226.99
954.95	227.04
955.25	227.04
955.55	227.06
955.84	227.04
956.14	227.05
956.44	227.06
956.73	227.03
957.03	227.05
957.32	227.04
957.62	227.03
957.92	227.07
958.21	227.04
958.51	227.24
958.81	227.27
959.10	227.29
959.40	227.33
959.69	227.35
959.99	227.37
960.29	227.37
960.58	227.37
960.88	227.44
961.17	227.41
961.47	227.43
961.76	227.41
962.06	227.43
962.36	227.41
962.65	227.42
962.95	227.44
963.24	227.42
963.54	227.42
963.83	227.44
964.13	227.42
964.42	227.40
964.72	227.25
965.01	227.25
965.31	227.23
965.60	227.18
965.90	227.29
966.19	227.25
966.49	227.26
966.78	227.27
967.08	227.25
967.37	227.25
967.67	227.21
967.96	227.25
968.26	227.24
968.55	227.26
968.85	227.26
969.14	227.26
969.43	227.26
969.73	227.25
970.02	227.24
970.32	227.23
970.61	227.21
970.91	227.17
971.20	227.14
971.49	227.12
971.79	227.14
972.08	227.01
972.38	227.03
972.67	227.02
972.96	227.05
973.26	227.01
973.55	227.06
973.85	227.06
974.14	227.04
974.43	227.06
974.73	227.02
975.02	227.00
975.31	227.01
975.61	227.00
975.90	226.99
976.19	226.97
976.49	226.98
976.78	226.99
977.07	226.99
977.37	227.00
977.66	227.02
977.95	227.00
978.24	227.02
978.54	227.05
978.83	227.04
979.12	227.02
979.42	227.02
979.71	226.98
980.00	226.98
980.29	226.98
980.59	226.94
980.88	226.99
981.17	226.99
981.46	226.99
981.76	226.99
982.05	227.05
982.34	227.06
982.63	227.06
982.93	227.06
983.22	227.11
983.51	227.11
983.80	227.14
984.09	227.16
984.39	227.15
984.68	227.12
984.97	227.14
985.26	227.13
985.55	227.14
985.85	227.11
986.14	227.14
986.43	227.16
986.72	227.16
987.01	227.10
987.30	227.11
987.59	227.10
987.89	227.11
988.18	227.05
988.47	227.03
988.76	227.02
989.05	227.01
989.34	226.98
989.63	227.02
989.92	227.00
990.22	226.98
990.51	226.98
990.80	226.97
991.09	226.98
991.38	227.00
991.67	226.99
991.96	226.98
992.25	226.98
992.54	226.95
992.83	226.95
993.12	226.95
993.41	226.97
993.70	227.05
993.99	227.08
994.28	227.12
994.58	227.15
994.87	227.13
995.16	227.13
995.45	227.12
995.74	227.05
996.03	227.08
996.32	227.10
996.61	227.14
996.90	227.14
997.19	227.13
997.48	227.13
997.77	227.12
998.06	227.13
998.34	227.11
998.63	227.11
998.92	227.13
999.21	227.15
999.50	227.16
999.79	227.09
1000.08	227.08
1000.37	227.07
1000.66	227.05
1000.95	227.09
1001.24	227.10
1001.53	227.13
1001.82	227.12
1002.11	227.08
1002.40	227.10
1002.68	227.13
1002.97	227.25
1003.26	227.23
1003.55	227.20
1003.84	227.22
1004.13	227.27
1004.42	227.27
1004.71	227.28
1004.99	227.26
1005.28	227.30
1005.57	227.28
1005.86	227.26
1006.15	227.25
1006.44	227.22
1006.72	227.24
1007.01	227.21
1007.30	227.21
1007.59	227.19
1007.88	227.18
1008.17	227.20
1008.45	227.16
1008.74	227.08
1009.03	227.00
1009.32	227.00
1009.60	226.99
1009.89	226.98
1010.18	226.90
1010.47	226.89
1010.76	226.89
1011.04	226.88
1011.33	226.87
1011.62	226.88
1011.91	226.90
1012.19	226.91
1012.48	226.92
1012.77	226.91
1013.05	226.96
1013.34	226.97
1013.63	226.96
1013.92	226.98
1014.20	226.96
1014.49	226.97
1014.78	226.99
1015.06	226.94
1015.35	226.93
1015.64	226.96
1015.92	226.99
1016.21	227.00
1016.50	227.00
1016.78	227.02
1017.07	227.04
1017.36	227.01
1017.64	226.98
1017.93	226.99
1018.22	226.98
1018.50	226.97
1018.79	226.97
1019.08	226.91
1019.36	226.92
1019.65	226.90
1019.93	226.95
1020.22	226.97
1020.51	227.06
1020.79	227.04
1021.08	226.75
1021.36	226.71
1021.65	226.91
1021.94	226.95
1022.22	227.07
1022.51	226.61
1022.79	227.86
1023.08	227.22
1023.36	229.03
1023.65	226.58
>>>>>End Processed Spectral Data<<<<<
