SpectraSuite Data File
++++++++++++++++++++++++++++++++++++
Date: Tue Oct 06 15:20:48 EDT 2015
User: lab3
Dark Spectrum Present: No
Reference Spectrum Present: No
Number of Sampled Component Spectra: 1
Spectrometers: USB2E7196
Integration Time (usec): 66000 (USB2E7196)
Spectra Averaged: 400 (USB2E7196)
Boxcar Smoothing: 10 (USB2E7196)
Correct for Electrical Dark: No (USB2E7196)
Strobe/Lamp Enabled: No (USB2E7196)
Correct for Detector Non-linearity: No (USB2E7196)
Correct for Stray Light: No (USB2E7196)
Number of Pixels in Processed Spectrum: 2048
>>>>>Begin Processed Spectral Data<<<<<
339.09	0.00
339.48	214.67
339.86	216.14
340.24	217.69
340.63	218.78
341.01	222.78
341.39	221.52
341.78	223.22
342.16	224.58
342.54	224.94
342.93	213.28
343.31	224.04
343.69	224.60
344.07	225.07
344.46	225.52
344.84	225.93
345.22	226.15
345.60	226.44
345.99	226.65
346.37	226.79
346.75	226.91
347.13	226.98
347.52	227.08
347.90	227.22
348.28	227.25
348.66	227.33
349.05	227.32
349.43	227.39
349.81	227.47
350.19	227.55
350.57	227.62
350.96	227.73
351.34	227.85
351.72	227.95
352.10	228.07
352.48	228.16
352.87	228.23
353.25	228.30
353.63	228.37
354.01	228.43
354.39	228.51
354.77	228.61
355.15	228.75
355.54	228.78
355.92	228.78
356.30	228.87
356.68	229.06
357.06	229.14
357.44	229.17
357.82	229.22
358.20	229.43
358.58	229.49
358.97	229.56
359.35	229.66
359.73	229.75
360.11	229.80
360.49	229.86
360.87	229.90
361.25	229.97
361.63	230.07
362.01	230.13
362.39	230.16
362.77	230.18
363.15	230.19
363.53	230.23
363.91	230.26
364.29	230.28
364.67	230.15
365.05	230.19
365.43	230.24
365.81	230.28
366.19	230.23
366.57	230.31
366.95	230.31
367.33	230.26
367.71	230.25
368.09	230.28
368.47	230.26
368.85	230.25
369.23	230.26
369.61	230.18
369.99	230.20
370.37	230.22
370.75	230.35
371.13	230.30
371.51	230.26
371.89	230.26
372.27	230.23
372.65	230.20
373.03	230.15
373.41	230.10
373.78	230.03
374.16	229.91
374.54	229.81
374.92	229.74
375.30	229.69
375.68	229.61
376.06	229.55
376.44	229.48
376.82	229.45
377.19	229.40
377.57	229.34
377.95	229.23
378.33	229.17
378.71	228.95
379.09	228.92
379.47	228.90
379.84	228.82
380.22	228.77
380.60	228.69
380.98	228.64
381.36	228.59
381.73	228.53
382.11	228.51
382.49	228.48
382.87	228.42
383.25	228.39
383.62	228.57
384.00	228.51
384.38	228.48
384.76	228.47
385.13	228.49
385.51	228.45
385.89	228.41
386.27	228.39
386.64	228.37
387.02	228.31
387.40	228.27
387.78	228.27
388.15	228.26
388.53	228.25
388.91	228.23
389.29	228.19
389.66	228.21
390.04	228.18
390.42	228.20
390.79	228.19
391.17	228.18
391.55	227.97
391.92	227.98
392.30	228.00
392.68	227.96
393.05	227.94
393.43	227.95
393.81	227.97
394.18	227.94
394.56	227.96
394.94	228.03
395.31	228.03
395.69	228.09
396.06	228.13
396.44	228.16
396.82	228.18
397.19	228.31
397.57	228.33
397.95	228.41
398.32	228.40
398.70	228.49
399.07	228.59
399.45	228.65
399.82	228.71
400.20	228.78
400.58	228.87
400.95	228.89
401.33	229.02
401.70	229.24
402.08	229.39
402.45	229.52
402.83	229.68
403.20	229.85
403.58	229.99
403.95	230.21
404.33	230.44
404.71	230.65
405.08	230.99
405.46	231.23
405.83	231.49
406.21	231.78
406.58	232.10
406.96	232.42
407.33	232.80
407.70	233.23
408.08	233.80
408.45	234.31
408.83	234.87
409.20	235.37
409.58	235.84
409.95	236.48
410.33	237.14
410.70	237.80
411.08	238.56
411.45	239.37
411.82	240.19
412.20	241.12
412.57	242.24
412.95	243.13
413.32	244.28
413.69	245.47
414.07	246.75
414.44	248.12
414.82	249.54
415.19	251.18
415.56	252.86
415.94	254.61
416.31	256.57
416.68	258.52
417.06	260.81
417.43	262.94
417.81	265.40
418.18	267.90
418.55	270.64
418.93	273.48
419.30	276.46
419.67	279.62
420.04	282.88
420.42	286.26
420.79	290.16
421.16	294.11
421.54	298.11
421.91	302.31
422.28	306.68
422.66	311.39
423.03	315.85
423.40	320.54
423.77	325.57
424.15	330.71
424.52	336.05
424.89	341.79
425.26	347.52
425.64	352.81
426.01	358.81
426.38	364.92
426.75	371.22
427.13	377.64
427.50	384.34
427.87	391.31
428.24	398.36
428.61	405.09
428.99	412.36
429.36	420.37
429.73	427.96
430.10	435.53
430.47	443.28
430.85	451.31
431.22	459.86
431.59	468.62
431.96	477.17
432.33	486.67
432.70	495.72
433.08	506.45
433.45	516.60
433.82	526.59
434.19	537.76
434.56	548.72
434.93	559.41
435.30	569.97
435.68	581.97
436.05	593.68
436.42	605.44
436.79	616.18
437.16	627.82
437.53	640.36
437.90	652.88
438.27	665.13
438.64	678.39
439.01	690.39
439.38	701.38
439.75	712.08
440.13	724.28
440.50	735.88
440.87	745.12
441.24	755.28
441.61	766.39
441.98	774.61
442.35	784.38
442.72	794.35
443.09	803.83
443.46	810.01
443.83	814.76
444.20	818.64
444.57	824.31
444.94	827.67
445.31	831.10
445.68	834.06
446.05	836.29
446.42	836.02
446.79	835.52
447.16	835.14
447.53	834.73
447.90	831.13
448.27	827.68
448.64	822.28
449.01	818.56
449.37	810.86
449.74	803.88
450.11	794.84
450.48	784.90
450.85	774.97
451.22	766.41
451.59	757.98
451.96	750.40
452.33	739.33
452.70	729.49
453.07	717.57
453.43	705.70
453.80	694.10
454.17	682.98
454.54	672.72
454.91	661.13
455.28	650.21
455.65	639.91
456.02	629.03
456.38	620.26
456.75	609.01
457.12	599.94
457.49	590.80
457.86	582.18
458.23	574.54
458.59	566.13
458.96	557.52
459.33	549.93
459.70	542.18
460.07	536.28
460.43	529.35
460.80	522.89
461.17	517.22
461.54	511.14
461.91	505.42
462.27	499.61
462.64	494.86
463.01	489.46
463.38	483.96
463.74	479.03
464.11	474.63
464.48	470.66
464.85	466.39
465.21	463.11
465.58	459.45
465.95	455.32
466.32	452.02
466.68	448.78
467.05	445.50
467.42	442.35
467.78	438.97
468.15	435.84
468.52	433.54
468.88	430.53
469.25	427.78
469.62	425.60
469.98	423.23
470.35	421.09
470.72	419.14
471.08	417.22
471.45	415.57
471.82	413.73
472.18	411.81
472.55	410.56
472.92	409.03
473.28	407.83
473.65	406.52
474.02	405.30
474.38	404.29
474.75	403.67
475.11	402.82
475.48	402.42
475.85	402.01
476.21	401.73
476.58	401.56
476.94	401.71
477.31	401.73
477.67	401.79
478.04	402.11
478.41	402.54
478.77	403.14
479.14	403.54
479.50	404.37
479.87	405.41
480.23	406.39
480.60	407.34
480.96	408.30
481.33	409.74
481.69	411.18
482.06	412.57
482.42	413.86
482.79	415.49
483.15	417.38
483.52	419.49
483.88	421.49
484.25	423.62
484.61	425.89
484.98	428.35
485.34	431.13
485.71	433.97
486.07	437.06
486.44	440.10
486.80	443.53
487.17	447.00
487.53	450.78
487.90	454.76
488.26	459.09
488.62	463.61
488.99	468.17
489.35	472.95
489.72	478.09
490.08	483.48
490.44	488.99
490.81	494.74
491.17	500.67
491.54	507.03
491.90	513.51
492.26	520.40
492.63	527.63
492.99	535.16
493.36	542.89
493.72	551.00
494.08	559.24
494.45	567.86
494.81	576.91
495.17	586.24
495.54	596.02
495.90	606.27
496.26	616.74
496.63	627.46
496.99	638.57
497.35	650.19
497.72	662.11
498.08	674.36
498.44	686.93
498.80	700.19
499.17	713.77
499.53	727.76
499.89	742.15
500.26	756.73
500.62	771.70
500.98	787.50
501.34	803.34
501.71	819.95
502.07	836.82
502.43	854.15
502.79	871.64
503.16	889.66
503.52	907.91
503.88	926.55
504.24	945.62
504.60	964.91
504.97	984.83
505.33	1005.16
505.69	1026.47
506.05	1047.97
506.41	1069.36
506.78	1090.87
507.14	1112.95
507.50	1135.57
507.86	1158.52
508.22	1181.61
508.59	1204.47
508.95	1228.37
509.31	1252.80
509.67	1277.89
510.03	1302.85
510.39	1327.72
510.75	1352.64
511.12	1377.84
511.48	1403.10
511.84	1428.36
512.20	1453.87
512.56	1480.32
512.92	1506.66
513.28	1532.43
513.64	1558.51
514.00	1584.90
514.37	1611.53
514.73	1638.28
515.09	1664.14
515.45	1690.30
515.81	1716.62
516.17	1742.61
516.53	1767.87
516.89	1793.07
517.25	1818.38
517.61	1843.54
517.97	1869.26
518.33	1894.28
518.69	1919.17
519.05	1944.45
519.41	1969.80
519.77	1995.07
520.13	2019.02
520.49	2043.01
520.85	2067.33
521.21	2091.02
521.57	2114.96
521.93	2137.79
522.29	2161.28
522.65	2184.54
523.01	2207.53
523.37	2229.95
523.73	2253.12
524.09	2275.84
524.45	2298.17
524.81	2319.81
525.17	2341.16
525.53	2361.87
525.89	2383.07
526.25	2403.67
526.61	2422.87
526.97	2442.00
527.33	2461.06
527.68	2479.47
528.04	2497.59
528.40	2514.30
528.76	2531.36
529.12	2547.89
529.48	2565.02
529.84	2579.56
530.20	2594.58
530.56	2608.58
530.91	2622.62
531.27	2635.98
531.63	2648.65
531.99	2660.83
532.35	2672.70
532.71	2684.08
533.07	2695.75
533.42	2705.63
533.78	2715.81
534.14	2726.79
534.50	2736.64
534.86	2747.08
535.21	2755.62
535.57	2763.75
535.93	2771.95
536.29	2778.55
536.65	2784.90
537.00	2789.63
537.36	2795.39
537.72	2800.18
538.08	2804.58
538.44	2807.73
538.79	2810.96
539.15	2812.86
539.51	2814.31
539.87	2814.75
540.22	2813.45
540.58	2812.31
540.94	2811.95
541.29	2810.55
541.65	2807.71
542.01	2804.61
542.37	2799.84
542.72	2796.70
543.08	2792.07
543.44	2787.62
543.79	2782.28
544.15	2776.39
544.51	2770.94
544.87	2764.40
545.22	2757.08
545.58	2749.61
545.94	2742.52
546.29	2733.91
546.65	2725.42
547.01	2716.87
547.36	2708.65
547.72	2700.76
548.07	2691.23
548.43	2680.69
548.79	2669.74
549.14	2659.25
549.50	2649.08
549.86	2637.99
550.21	2625.24
550.57	2613.55
550.92	2600.07
551.28	2587.34
551.64	2574.88
551.99	2562.09
552.35	2549.05
552.70	2535.85
553.06	2523.09
553.41	2509.99
553.77	2496.39
554.13	2483.06
554.48	2468.66
554.84	2453.58
555.19	2439.23
555.55	2424.83
555.90	2410.61
556.26	2396.90
556.61	2382.13
556.97	2366.18
557.32	2350.72
557.68	2335.64
558.03	2320.25
558.39	2305.83
558.74	2291.93
559.10	2276.25
559.45	2261.01
559.81	2246.42
560.16	2231.57
560.52	2216.50
560.87	2201.44
561.23	2186.14
561.58	2171.26
561.94	2156.09
562.29	2140.55
562.64	2125.09
563.00	2109.72
563.35	2094.70
563.71	2079.27
564.06	2064.06
564.42	2049.26
564.77	2034.50
565.12	2019.70
565.48	2004.78
565.83	1990.06
566.19	1975.40
566.54	1961.07
566.89	1945.93
567.25	1930.62
567.60	1916.06
567.96	1900.95
568.31	1884.68
568.66	1869.35
569.02	1854.56
569.37	1840.29
569.72	1826.57
570.08	1812.39
570.43	1797.77
570.78	1782.84
571.14	1767.88
571.49	1753.00
571.84	1738.55
572.20	1723.07
572.55	1708.17
572.90	1693.24
573.26	1678.31
573.61	1662.68
573.96	1647.57
574.31	1632.54
574.67	1617.51
575.02	1602.23
575.37	1586.88
575.72	1572.31
576.08	1557.68
576.43	1542.45
576.78	1527.38
577.13	1512.39
577.49	1497.74
577.84	1483.49
578.19	1468.87
578.54	1454.19
578.90	1439.46
579.25	1424.68
579.60	1410.97
579.95	1397.09
580.30	1383.17
580.66	1369.06
581.01	1355.10
581.36	1341.21
581.71	1327.96
582.06	1314.65
582.42	1301.17
582.77	1288.23
583.12	1275.53
583.47	1262.64
583.82	1250.07
584.17	1237.14
584.53	1224.32
584.88	1211.70
585.23	1198.96
585.58	1186.61
585.93	1174.24
586.28	1162.70
586.63	1151.02
586.98	1139.09
587.34	1127.45
587.69	1115.61
588.04	1104.22
588.39	1093.07
588.74	1081.59
589.09	1070.28
589.44	1058.70
589.79	1047.65
590.14	1036.63
590.49	1025.70
590.84	1015.08
591.19	1004.55
591.54	994.12
591.89	983.36
592.25	972.91
592.60	962.39
592.95	952.08
593.30	942.01
593.65	931.74
594.00	921.70
594.35	912.49
594.70	902.69
595.05	893.53
595.40	884.12
595.75	874.58
596.10	865.57
596.45	856.57
596.80	847.89
597.15	839.30
597.50	830.70
597.85	822.31
598.19	813.87
598.54	805.47
598.89	797.45
599.24	789.89
599.59	782.15
599.94	774.94
600.29	767.73
600.64	760.40
600.99	753.01
601.34	745.84
601.69	738.14
602.04	731.30
602.39	724.29
602.74	717.50
603.08	710.80
603.43	704.14
603.78	697.42
604.13	690.85
604.48	684.28
604.83	677.94
605.18	671.65
605.53	665.53
605.87	659.36
606.22	653.33
606.57	647.19
606.92	641.03
607.27	634.91
607.62	629.01
607.96	623.32
608.31	618.02
608.66	612.64
609.01	607.50
609.36	602.31
609.70	597.11
610.05	591.94
610.40	586.93
610.75	581.89
611.10	577.09
611.44	572.26
611.79	567.59
612.14	562.82
612.49	558.12
612.83	553.60
613.18	549.18
613.53	544.79
613.88	540.51
614.22	536.56
614.57	532.48
614.92	528.46
615.27	524.61
615.61	520.67
615.96	516.77
616.31	512.87
616.65	509.12
617.00	505.48
617.35	501.85
617.70	498.28
618.04	494.79
618.39	491.40
618.74	488.22
619.08	484.99
619.43	481.84
619.78	478.68
620.12	475.53
620.47	472.58
620.82	469.66
621.16	466.77
621.51	463.92
621.85	461.09
622.20	458.34
622.55	455.58
622.89	452.85
623.24	450.31
623.59	447.78
623.93	445.33
624.28	443.00
624.62	440.89
624.97	438.77
625.32	436.56
625.66	434.31
626.01	432.00
626.35	429.83
626.70	427.66
627.04	425.68
627.39	423.62
627.73	421.64
628.08	419.71
628.43	417.81
628.77	415.81
629.12	413.96
629.46	412.16
629.81	410.47
630.15	408.73
630.50	406.98
630.84	405.32
631.19	403.67
631.53	402.09
631.88	400.30
632.22	398.63
632.57	397.23
632.91	395.79
633.26	394.45
633.60	393.10
633.95	391.80
634.29	390.35
634.64	389.05
634.98	387.57
635.32	386.24
635.67	385.05
636.01	383.84
636.36	382.69
636.70	381.65
637.05	380.44
637.39	379.33
637.73	378.22
638.08	377.17
638.42	376.17
638.77	375.03
639.11	373.90
639.45	372.77
639.80	371.61
640.14	370.53
640.49	369.42
640.83	368.30
641.17	367.26
641.52	366.23
641.86	365.20
642.20	364.33
642.55	363.33
642.89	362.32
643.23	361.38
643.58	360.55
643.92	359.52
644.26	358.60
644.61	357.73
644.95	356.84
645.29	355.86
645.64	354.85
645.98	353.93
646.32	353.14
646.66	352.31
647.01	351.48
647.35	350.72
647.69	349.95
648.04	349.26
648.38	348.47
648.72	347.73
649.06	346.99
649.41	346.21
649.75	345.45
650.09	344.76
650.43	344.03
650.78	343.24
651.12	342.52
651.46	341.80
651.80	341.07
652.14	340.39
652.49	339.78
652.83	339.13
653.17	338.45
653.51	337.76
653.85	337.20
654.20	336.57
654.54	335.81
654.88	335.09
655.22	334.46
655.56	333.79
655.90	333.15
656.25	332.49
656.59	331.86
656.93	331.29
657.27	330.74
657.61	330.13
657.95	329.59
658.29	329.01
658.64	328.47
658.98	327.87
659.32	327.28
659.66	326.72
660.00	326.20
660.34	325.68
660.68	325.10
661.02	324.45
661.36	323.84
661.70	323.32
662.05	322.79
662.39	322.25
662.73	321.79
663.07	321.39
663.41	320.94
663.75	320.42
664.09	319.89
664.43	319.29
664.77	318.75
665.11	318.14
665.45	317.61
665.79	317.11
666.13	316.60
666.47	316.07
666.81	315.51
667.15	314.89
667.49	314.41
667.83	313.98
668.17	313.54
668.51	313.13
668.85	312.71
669.19	312.35
669.53	311.82
669.87	311.29
670.21	310.73
670.55	310.22
670.89	309.83
671.23	309.40
671.57	309.02
671.91	308.67
672.25	308.33
672.58	307.99
672.92	307.50
673.26	307.12
673.60	306.75
673.94	306.37
674.28	306.04
674.62	305.63
674.96	305.21
675.30	304.79
675.64	304.35
675.97	303.89
676.31	303.40
676.65	302.97
676.99	302.65
677.33	302.22
677.67	301.82
678.01	301.32
678.34	300.91
678.68	300.47
679.02	300.01
679.36	299.56
679.70	299.10
680.04	298.71
680.37	298.30
680.71	297.90
681.05	297.52
681.39	297.06
681.73	296.61
682.06	296.14
682.40	295.72
682.74	295.34
683.08	295.04
683.42	294.65
683.75	294.28
684.09	293.80
684.43	293.40
684.77	292.97
685.10	292.60
685.44	292.17
685.78	291.77
686.12	291.37
686.45	290.96
686.79	290.52
687.13	290.15
687.46	289.70
687.80	289.29
688.14	288.81
688.48	288.41
688.81	288.01
689.15	287.69
689.49	287.28
689.82	286.85
690.16	286.32
690.50	285.89
690.83	285.47
691.17	285.03
691.51	284.61
691.84	284.23
692.18	283.80
692.52	283.37
692.85	282.91
693.19	282.54
693.52	282.11
693.86	281.69
694.20	281.23
694.53	280.82
694.87	280.39
695.21	279.95
695.54	279.54
695.88	279.10
696.21	278.58
696.55	278.16
696.88	277.72
697.22	277.31
697.56	276.90
697.89	276.44
698.23	276.05
698.56	275.62
698.90	275.22
699.23	274.77
699.57	274.38
699.90	273.97
700.24	273.54
700.58	273.15
700.91	272.80
701.25	272.57
701.58	272.28
701.92	271.93
702.25	271.58
702.59	271.18
702.92	270.82
703.26	270.45
703.59	270.07
703.93	269.86
704.26	269.51
704.60	269.11
704.93	268.75
705.26	268.35
705.60	268.01
705.93	267.59
706.27	267.30
706.60	266.97
706.94	266.70
707.27	266.31
707.61	265.97
707.94	265.59
708.27	265.07
708.61	264.62
708.94	264.24
709.28	263.90
709.61	263.54
709.94	263.20
710.28	262.88
710.61	262.59
710.95	262.09
711.28	261.87
711.61	261.53
711.95	261.26
712.28	260.93
712.61	260.59
712.95	260.39
713.28	260.14
713.61	259.79
713.95	259.42
714.28	259.12
714.61	258.79
714.95	258.48
715.28	258.17
715.61	257.89
715.95	257.62
716.28	257.30
716.61	257.05
716.95	256.75
717.28	256.46
717.61	256.16
717.94	255.88
718.28	255.49
718.61	255.23
718.94	254.91
719.27	254.66
719.61	254.43
719.94	254.13
720.27	253.77
720.60	253.53
720.94	253.27
721.27	253.03
721.60	252.79
721.93	252.54
722.27	252.35
722.60	252.12
722.93	251.85
723.26	251.63
723.59	251.37
723.93	251.17
724.26	250.96
724.59	250.73
724.92	250.53
725.25	250.37
725.59	250.14
725.92	249.95
726.25	249.73
726.58	249.50
726.91	249.27
727.24	249.07
727.57	248.85
727.91	248.61
728.24	248.43
728.57	248.21
728.90	248.05
729.23	247.76
729.56	247.63
729.89	247.42
730.22	247.23
730.55	247.02
730.89	246.80
731.22	246.61
731.55	246.40
731.88	246.21
732.21	245.98
732.54	245.78
732.87	245.61
733.20	245.46
733.53	245.28
733.86	245.13
734.19	244.93
734.52	244.80
734.85	244.79
735.18	244.58
735.51	244.46
735.84	244.30
736.17	244.20
736.50	243.96
736.83	244.01
737.16	243.84
737.49	243.71
737.82	243.54
738.15	243.39
738.48	243.24
738.81	243.05
739.14	242.88
739.47	242.73
739.80	242.56
740.13	242.40
740.46	242.22
740.79	242.04
741.12	241.88
741.45	241.68
741.78	241.42
742.11	241.31
742.44	241.14
742.77	241.01
743.10	240.84
743.43	240.69
743.75	240.37
744.08	240.51
744.41	240.37
744.74	240.22
745.07	240.03
745.40	239.95
745.73	239.91
746.06	239.79
746.39	239.69
746.71	239.55
747.04	239.40
747.37	239.28
747.70	239.18
748.03	239.08
748.36	239.00
748.68	238.87
749.01	238.71
749.34	238.59
749.67	238.49
750.00	238.40
750.33	238.44
750.65	238.35
750.98	237.96
751.31	237.86
751.64	237.79
751.97	237.80
752.29	237.69
752.62	237.50
752.95	237.40
753.28	237.27
753.60	237.15
753.93	237.09
754.26	237.00
754.59	236.84
754.91	236.71
755.24	236.60
755.57	236.51
755.90	236.40
756.22	236.27
756.55	236.13
756.88	236.00
757.20	235.77
757.53	235.61
757.86	235.51
758.19	235.43
758.51	235.33
758.84	235.13
759.17	235.01
759.49	234.93
759.82	234.92
760.15	234.84
760.47	234.76
760.80	234.63
761.13	234.58
761.45	234.50
761.78	234.42
762.11	234.33
762.43	234.25
762.76	234.17
763.08	234.13
763.41	234.06
763.74	234.01
764.06	233.92
764.39	233.87
764.71	233.79
765.04	233.70
765.37	233.62
765.69	233.56
766.02	233.49
766.34	233.40
766.67	233.27
767.00	233.22
767.32	233.27
767.65	233.33
767.97	233.23
768.30	233.19
768.62	233.12
768.95	233.04
769.27	232.96
769.60	232.92
769.92	232.84
770.25	232.75
770.57	232.64
770.90	232.59
771.22	232.51
771.55	232.48
771.87	232.43
772.20	232.38
772.52	232.48
772.85	232.64
773.17	232.60
773.50	232.52
773.82	232.45
774.15	232.31
774.47	232.15
774.80	232.09
775.12	232.05
775.45	232.01
775.77	231.97
776.09	231.93
776.42	231.88
776.74	231.89
777.07	231.86
777.39	231.84
777.72	231.78
778.04	231.77
778.36	231.68
778.69	231.63
779.01	231.62
779.33	231.41
779.66	231.15
779.98	231.10
780.31	231.09
780.63	231.12
780.95	231.11
781.28	231.07
781.60	231.01
781.92	230.97
782.25	230.92
782.57	230.89
782.89	230.85
783.22	230.79
783.54	230.72
783.86	230.70
784.19	230.66
784.51	230.69
784.83	230.63
785.16	230.61
785.48	230.58
785.80	230.54
786.12	230.52
786.45	230.52
786.77	230.51
787.09	230.46
787.42	230.37
787.74	230.34
788.06	230.32
788.38	230.31
788.71	230.26
789.03	230.25
789.35	230.25
789.67	230.20
789.99	230.19
790.32	230.15
790.64	230.13
790.96	230.26
791.28	230.16
791.61	230.14
791.93	230.13
792.25	230.10
792.57	230.19
792.89	230.14
793.21	230.10
793.54	230.03
793.86	230.00
794.18	229.98
794.50	229.91
794.82	229.89
795.14	229.88
795.47	229.90
795.79	229.88
796.11	229.82
796.43	229.78
796.75	229.77
797.07	229.74
797.39	229.73
797.71	229.55
798.04	229.54
798.36	229.54
798.68	229.51
799.00	229.51
799.32	229.41
799.64	229.43
799.96	229.41
800.28	229.43
800.60	229.41
800.92	229.41
801.24	229.41
801.56	229.40
801.89	229.37
802.21	229.36
802.53	229.30
802.85	229.32
803.17	229.39
803.49	229.34
803.81	229.31
804.13	229.28
804.45	229.25
804.77	229.25
805.09	229.22
805.41	229.19
805.73	229.13
806.05	229.08
806.37	229.06
806.69	229.03
807.01	228.99
807.33	228.98
807.65	228.89
807.97	228.95
808.28	228.91
808.60	228.89
808.92	228.84
809.24	228.93
809.56	228.87
809.88	228.80
810.20	228.82
810.52	228.83
810.84	228.79
811.16	228.76
811.48	228.74
811.80	228.79
812.12	228.76
812.43	228.81
812.75	228.79
813.07	228.76
813.39	228.76
813.71	228.73
814.03	228.69
814.35	228.70
814.67	228.60
814.98	228.59
815.30	228.58
815.62	228.55
815.94	228.44
816.26	228.47
816.58	228.40
816.89	228.39
817.21	228.36
817.53	228.37
817.85	228.36
818.17	228.33
818.48	228.25
818.80	228.29
819.12	228.24
819.44	228.20
819.76	228.16
820.07	228.16
820.39	228.14
820.71	228.15
821.03	228.14
821.34	228.14
821.66	228.14
821.98	228.14
822.30	228.10
822.61	228.20
822.93	228.16
823.25	228.19
823.57	228.17
823.88	228.18
824.20	228.16
824.52	228.18
824.83	228.17
825.15	228.14
825.47	228.12
825.79	228.14
826.10	228.12
826.42	228.12
826.74	228.11
827.05	228.10
827.37	228.09
827.69	228.08
828.00	228.08
828.32	228.07
828.64	228.03
828.95	228.14
829.27	228.06
829.58	228.04
829.90	228.03
830.22	228.02
830.53	227.96
830.85	227.94
831.17	227.89
831.48	227.88
831.80	227.89
832.11	227.85
832.43	227.82
832.75	227.82
833.06	227.90
833.38	227.85
833.69	227.82
834.01	227.83
834.32	227.81
834.64	227.80
834.96	227.78
835.27	227.78
835.59	227.72
835.90	227.70
836.22	227.71
836.53	227.67
836.85	227.64
837.16	227.84
837.48	227.85
837.79	227.92
838.11	227.91
838.42	227.90
838.74	227.91
839.05	227.90
839.37	227.90
839.68	227.78
840.00	227.78
840.31	227.82
840.63	227.79
840.94	227.76
841.26	227.72
841.57	227.72
841.88	227.73
842.20	227.70
842.51	227.65
842.83	227.65
843.14	227.80
843.46	227.80
843.77	227.67
844.08	227.63
844.40	227.57
844.71	227.53
845.03	227.52
845.34	227.50
845.65	227.49
845.97	227.46
846.28	227.47
846.60	227.49
846.91	227.46
847.22	227.46
847.54	227.49
847.85	227.50
848.16	227.48
848.48	227.44
848.79	227.49
849.10	227.53
849.42	227.53
849.73	227.36
850.04	227.35
850.36	227.29
850.67	227.34
850.98	227.35
851.30	227.38
851.61	227.37
851.92	227.38
852.23	227.42
852.55	227.44
852.86	227.45
853.17	227.45
853.49	227.48
853.80	227.51
854.11	227.52
854.42	227.55
854.74	227.52
855.05	227.52
855.36	227.43
855.67	227.42
855.99	227.39
856.30	227.59
856.61	227.59
856.92	227.59
857.23	227.59
857.55	227.57
857.86	227.54
858.17	227.56
858.48	227.52
858.79	227.48
859.11	227.49
859.42	227.47
859.73	227.43
860.04	227.42
860.35	227.38
860.66	227.33
860.98	227.32
861.29	227.35
861.60	227.35
861.91	227.38
862.22	227.36
862.53	227.34
862.84	227.14
863.16	227.16
863.47	227.13
863.78	227.11
864.09	227.11
864.40	227.13
864.71	227.14
865.02	227.16
865.33	227.15
865.64	227.13
865.95	227.14
866.27	227.25
866.58	227.25
866.89	227.26
867.20	227.27
867.51	227.24
867.82	227.23
868.13	227.29
868.44	227.26
868.75	227.33
869.06	227.33
869.37	227.36
869.68	227.32
869.99	227.36
870.30	227.37
870.61	227.39
870.92	227.37
871.23	227.34
871.54	227.37
871.85	227.41
872.16	227.43
872.47	227.40
872.78	227.31
873.09	227.32
873.40	227.30
873.71	227.31
874.02	227.32
874.33	227.31
874.64	227.25
874.95	227.30
875.26	227.24
875.56	227.25
875.87	227.22
876.18	227.21
876.49	227.39
876.80	227.36
877.11	227.33
877.42	227.33
877.73	227.33
878.04	227.30
878.35	227.28
878.66	227.28
878.96	227.29
879.27	227.27
879.58	227.24
879.89	227.23
880.20	227.28
880.51	227.27
880.82	227.27
881.12	227.28
881.43	227.23
881.74	227.20
882.05	227.18
882.36	227.19
882.67	227.21
882.97	227.00
883.28	227.00
883.59	227.00
883.90	227.01
884.21	227.05
884.51	227.05
884.82	227.02
885.13	227.02
885.44	227.02
885.74	227.03
886.05	227.03
886.36	227.05
886.67	226.99
886.98	227.09
887.28	227.11
887.59	227.11
887.90	227.12
888.20	227.14
888.51	227.18
888.82	227.15
889.13	227.17
889.43	227.34
889.74	227.33
890.05	227.33
890.35	227.32
890.66	227.27
890.97	227.24
891.28	227.24
891.58	227.25
891.89	227.25
892.20	227.23
892.50	227.21
892.81	227.20
893.12	227.20
893.42	227.11
893.73	227.11
894.04	227.10
894.34	227.13
894.65	227.10
894.95	227.09
895.26	227.11
895.57	227.18
895.87	227.01
896.18	227.04
896.48	227.05
896.79	227.05
897.10	227.08
897.40	227.09
897.71	227.10
898.01	227.08
898.32	227.10
898.63	227.08
898.93	227.09
899.24	227.08
899.54	227.07
899.85	227.06
900.15	227.05
900.46	227.05
900.76	227.04
901.07	227.05
901.38	227.04
901.68	227.06
901.99	226.96
902.29	226.96
902.60	226.94
902.90	226.92
903.21	226.92
903.51	226.89
903.82	226.94
904.12	226.94
904.43	226.95
904.73	226.94
905.03	226.96
905.34	227.15
905.64	227.15
905.95	227.14
906.25	227.14
906.56	227.14
906.86	227.14
907.17	227.10
907.47	227.10
907.77	227.07
908.08	227.04
908.38	227.04
908.69	227.06
908.99	227.09
909.30	227.10
909.60	227.09
909.90	227.08
910.21	227.03
910.51	226.99
910.81	226.99
911.12	227.00
911.42	226.99
911.73	226.79
912.03	226.80
912.33	226.84
912.64	226.84
912.94	226.83
913.24	226.80
913.55	226.80
913.85	226.79
914.15	226.83
914.46	226.86
914.76	226.86
915.06	226.85
915.37	226.81
915.67	226.80
915.97	226.79
916.27	226.78
916.58	226.80
916.88	226.80
917.18	226.79
917.49	226.91
917.79	226.89
918.09	226.92
918.39	226.96
918.70	226.95
919.00	226.95
919.30	227.02
919.60	227.00
919.91	226.99
920.21	226.99
920.51	226.97
920.81	226.96
921.12	226.98
921.42	226.99
921.72	226.99
922.02	227.01
922.32	227.03
922.63	227.03
922.93	227.13
923.23	227.14
923.53	227.11
923.83	227.01
924.13	227.04
924.44	227.03
924.74	227.04
925.04	227.07
925.34	227.05
925.64	226.98
925.94	226.99
926.24	227.09
926.55	227.08
926.85	227.09
927.15	227.08
927.45	227.07
927.75	227.07
928.05	227.09
928.35	227.05
928.65	227.09
928.95	227.09
929.26	227.00
929.56	227.02
929.86	227.04
930.16	227.01
930.46	226.99
930.76	227.01
931.06	226.94
931.36	226.89
931.66	226.91
931.96	226.93
932.26	226.96
932.56	226.88
932.86	226.89
933.16	226.89
933.46	226.87
933.76	226.83
934.06	226.86
934.36	226.90
934.66	226.90
934.96	226.87
935.26	226.89
935.56	226.92
935.86	226.88
936.16	226.87
936.46	226.87
936.76	226.87
937.06	226.84
937.36	226.87
937.66	226.87
937.96	226.88
938.26	226.85
938.56	226.83
938.86	226.85
939.16	226.88
939.46	226.90
939.76	226.91
940.06	226.92
940.35	226.90
940.65	226.81
940.95	226.84
941.25	226.80
941.55	226.77
941.85	226.76
942.15	226.81
942.45	226.86
942.75	226.85
943.04	226.88
943.34	226.91
943.64	226.88
943.94	226.87
944.24	226.86
944.54	226.88
944.84	226.89
945.13	226.86
945.43	226.81
945.73	226.81
946.03	226.80
946.33	226.79
946.62	226.79
946.92	226.78
947.22	226.79
947.52	226.80
947.82	226.84
948.11	226.81
948.41	226.77
948.71	226.73
949.01	226.74
949.31	226.70
949.60	226.68
949.90	226.72
950.20	226.71
950.50	226.71
950.79	226.70
951.09	226.72
951.39	226.72
951.69	226.73
951.98	226.75
952.28	226.77
952.58	226.77
952.87	226.77
953.17	226.79
953.47	226.76
953.76	226.77
954.06	226.73
954.36	226.72
954.66	226.72
954.95	226.74
955.25	226.76
955.55	226.78
955.84	226.76
956.14	226.76
956.44	226.76
956.73	226.73
957.03	226.73
957.32	226.72
957.62	226.72
957.92	226.74
958.21	226.74
958.51	226.93
958.81	226.94
959.10	226.97
959.40	227.01
959.69	227.02
959.99	227.03
960.29	227.05
960.58	227.05
960.88	227.11
961.17	227.09
961.47	227.10
961.76	227.10
962.06	227.13
962.36	227.09
962.65	227.10
962.95	227.13
963.24	227.12
963.54	227.12
963.83	227.14
964.13	227.11
964.42	227.09
964.72	226.93
965.01	226.93
965.31	226.91
965.60	226.87
965.90	226.99
966.19	226.96
966.49	226.96
966.78	226.95
967.08	226.94
967.37	226.92
967.67	226.89
967.96	226.92
968.26	226.90
968.55	226.96
968.85	226.95
969.14	226.94
969.43	226.93
969.73	226.91
970.02	226.89
970.32	226.88
970.61	226.86
970.91	226.83
971.20	226.82
971.49	226.82
971.79	226.84
972.08	226.71
972.38	226.73
972.67	226.73
972.96	226.75
973.26	226.71
973.55	226.77
973.85	226.75
974.14	226.72
974.43	226.73
974.73	226.69
975.02	226.68
975.31	226.69
975.61	226.69
975.90	226.68
976.19	226.69
976.49	226.71
976.78	226.72
977.07	226.70
977.37	226.71
977.66	226.74
977.95	226.69
978.24	226.70
978.54	226.73
978.83	226.71
979.12	226.70
979.42	226.71
979.71	226.66
980.00	226.68
980.29	226.69
980.59	226.66
980.88	226.70
981.17	226.70
981.46	226.69
981.76	226.69
982.05	226.73
982.34	226.75
982.63	226.74
982.93	226.75
983.22	226.80
983.51	226.81
983.80	226.81
984.09	226.86
984.39	226.85
984.68	226.81
984.97	226.83
985.26	226.83
985.55	226.84
985.85	226.82
986.14	226.84
986.43	226.87
986.72	226.86
987.01	226.81
987.30	226.82
987.59	226.81
987.89	226.83
988.18	226.78
988.47	226.77
988.76	226.76
989.05	226.72
989.34	226.68
989.63	226.71
989.92	226.69
990.22	226.66
990.51	226.66
990.80	226.65
991.09	226.65
991.38	226.67
991.67	226.65
991.96	226.66
992.25	226.67
992.54	226.62
992.83	226.63
993.12	226.62
993.41	226.67
993.70	226.75
993.99	226.77
994.28	226.79
994.58	226.82
994.87	226.80
995.16	226.83
995.45	226.83
995.74	226.76
996.03	226.78
996.32	226.80
996.61	226.84
996.90	226.84
997.19	226.84
997.48	226.84
997.77	226.83
998.06	226.82
998.34	226.80
998.63	226.82
998.92	226.83
999.21	226.86
999.50	226.85
999.79	226.78
1000.08	226.78
1000.37	226.78
1000.66	226.75
1000.95	226.81
1001.24	226.79
1001.53	226.82
1001.82	226.80
1002.11	226.80
1002.40	226.81
1002.68	226.84
1002.97	226.97
1003.26	226.97
1003.55	226.93
1003.84	226.96
1004.13	227.03
1004.42	227.01
1004.71	227.00
1004.99	226.97
1005.28	227.02
1005.57	227.00
1005.86	226.98
1006.15	226.96
1006.44	226.93
1006.72	226.96
1007.01	226.92
1007.30	226.94
1007.59	226.91
1007.88	226.93
1008.17	226.93
1008.45	226.89
1008.74	226.82
1009.03	226.72
1009.32	226.72
1009.60	226.73
1009.89	226.72
1010.18	226.64
1010.47	226.63
1010.76	226.64
1011.04	226.63
1011.33	226.60
1011.62	226.63
1011.91	226.63
1012.19	226.65
1012.48	226.66
1012.77	226.66
1013.05	226.71
1013.34	226.70
1013.63	226.69
1013.92	226.68
1014.20	226.66
1014.49	226.67
1014.78	226.67
1015.06	226.62
1015.35	226.61
1015.64	226.62
1015.92	226.64
1016.21	226.65
1016.50	226.66
1016.78	226.67
1017.07	226.68
1017.36	226.66
1017.64	226.61
1017.93	226.63
1018.22	226.61
1018.50	226.58
1018.79	226.56
1019.08	226.50
1019.36	226.50
1019.65	226.48
1019.93	226.54
1020.22	226.57
1020.51	226.63
1020.79	226.61
1021.08	226.54
1021.36	226.06
1021.65	226.30
1021.94	226.54
1022.22	226.62
1022.51	226.17
1022.79	227.42
1023.08	226.84
1023.36	228.17
1023.65	226.16
>>>>>End Processed Spectral Data<<<<<
