SpectraSuite Data File
++++++++++++++++++++++++++++++++++++
Date: Tue Oct 06 12:14:29 EDT 2015
User: lab3
Dark Spectrum Present: No
Reference Spectrum Present: No
Number of Sampled Component Spectra: 1
Spectrometers: USB2E7196
Integration Time (usec): 66000 (USB2E7196)
Spectra Averaged: 400 (USB2E7196)
Boxcar Smoothing: 10 (USB2E7196)
Correct for Electrical Dark: No (USB2E7196)
Strobe/Lamp Enabled: No (USB2E7196)
Correct for Detector Non-linearity: No (USB2E7196)
Correct for Stray Light: No (USB2E7196)
Number of Pixels in Processed Spectrum: 2048
>>>>>Begin Processed Spectral Data<<<<<
339.09	0.00
339.48	216.37
339.86	218.17
340.24	219.12
340.63	220.80
341.01	224.80
341.39	223.62
341.78	224.92
342.16	226.11
342.54	226.61
342.93	214.94
343.31	225.79
343.69	226.34
344.07	226.79
344.46	227.26
344.84	227.67
345.22	227.88
345.60	228.14
345.99	228.35
346.37	228.49
346.75	228.61
347.13	228.70
347.52	228.80
347.90	228.94
348.28	228.98
348.66	229.06
349.05	229.06
349.43	229.15
349.81	229.23
350.19	229.30
350.57	229.38
350.96	229.49
351.34	229.63
351.72	229.74
352.10	229.85
352.48	229.92
352.87	229.95
353.25	230.03
353.63	230.10
354.01	230.17
354.39	230.27
354.77	230.36
355.15	230.49
355.54	230.52
355.92	230.53
356.30	230.61
356.68	230.80
357.06	230.86
357.44	230.91
357.82	230.97
358.20	231.19
358.58	231.25
358.97	231.30
359.35	231.38
359.73	231.47
360.11	231.54
360.49	231.60
360.87	231.67
361.25	231.74
361.63	231.84
362.01	231.89
362.39	231.90
362.77	231.94
363.15	231.95
363.53	231.99
363.91	232.02
364.29	232.04
364.67	231.90
365.05	231.92
365.43	231.97
365.81	231.99
366.19	231.92
366.57	232.01
366.95	232.02
367.33	231.96
367.71	231.95
368.09	231.98
368.47	231.97
368.85	231.94
369.23	231.94
369.61	231.86
369.99	231.90
370.37	231.90
370.75	232.01
371.13	231.97
371.51	231.93
371.89	231.91
372.27	231.89
372.65	231.87
373.03	231.83
373.41	231.78
373.78	231.73
374.16	231.62
374.54	231.51
374.92	231.46
375.30	231.42
375.68	231.35
376.06	231.30
376.44	231.26
376.82	231.24
377.19	231.18
377.57	231.12
377.95	231.02
378.33	230.96
378.71	230.76
379.09	230.73
379.47	230.69
379.84	230.63
380.22	230.56
380.60	230.48
380.98	230.42
381.36	230.36
381.73	230.30
382.11	230.27
382.49	230.25
382.87	230.18
383.25	230.13
383.62	230.30
384.00	230.22
384.38	230.18
384.76	230.18
385.13	230.20
385.51	230.17
385.89	230.11
386.27	230.08
386.64	230.08
387.02	230.04
387.40	229.99
387.78	229.98
388.15	229.97
388.53	229.96
388.91	229.96
389.29	229.94
389.66	229.94
390.04	229.89
390.42	229.92
390.79	229.93
391.17	229.92
391.55	229.73
391.92	229.74
392.30	229.76
392.68	229.71
393.05	229.69
393.43	229.71
393.81	229.74
394.18	229.73
394.56	229.74
394.94	229.79
395.31	229.79
395.69	229.85
396.06	229.90
396.44	229.95
396.82	229.96
397.19	230.09
397.57	230.11
397.95	230.18
398.32	230.16
398.70	230.22
399.07	230.33
399.45	230.39
399.82	230.45
400.20	230.50
400.58	230.61
400.95	230.64
401.33	230.75
401.70	230.96
402.08	231.11
402.45	231.23
402.83	231.39
403.20	231.56
403.58	231.70
403.95	231.89
404.33	232.09
404.71	232.30
405.08	232.59
405.46	232.83
405.83	233.10
406.21	233.38
406.58	233.69
406.96	234.01
407.33	234.36
407.70	234.75
408.08	235.32
408.45	235.79
408.83	236.32
409.20	236.82
409.58	237.27
409.95	237.86
410.33	238.51
410.70	239.12
411.08	239.85
411.45	240.61
411.82	241.41
412.20	242.32
412.57	243.39
412.95	244.26
413.32	245.39
413.69	246.54
414.07	247.76
414.44	249.10
414.82	250.47
415.19	252.06
415.56	253.70
415.94	255.37
416.31	257.26
416.68	259.17
417.06	261.39
417.43	263.45
417.81	265.81
418.18	268.27
418.55	270.93
418.93	273.71
419.30	276.61
419.67	279.66
420.04	282.81
420.42	286.14
420.79	289.92
421.16	293.75
421.54	297.64
421.91	301.71
422.28	305.93
422.66	310.48
423.03	314.82
423.40	319.36
423.77	324.23
424.15	329.21
424.52	334.37
424.89	339.95
425.26	345.49
425.64	350.65
426.01	356.42
426.38	362.33
426.75	368.41
427.13	374.61
427.50	381.13
427.87	387.83
428.24	394.58
428.61	401.08
428.99	408.10
429.36	415.84
429.73	423.25
430.10	430.64
430.47	438.17
430.85	445.98
431.22	454.31
431.59	462.82
431.96	471.10
432.33	480.35
432.70	489.16
433.08	499.60
433.45	509.45
433.82	519.10
434.19	529.93
434.56	540.55
434.93	550.89
435.30	561.12
435.68	572.75
436.05	584.12
436.42	595.51
436.79	605.87
437.16	617.05
437.53	629.11
437.90	641.18
438.27	652.91
438.64	665.54
439.01	677.03
439.38	687.69
439.75	697.97
440.13	709.64
440.50	720.76
440.87	729.56
441.24	739.26
441.61	749.89
441.98	757.69
442.35	766.90
442.72	776.37
443.09	785.44
443.46	791.38
443.83	795.78
444.20	799.38
444.57	804.74
444.94	808.01
445.31	811.18
445.68	813.88
446.05	815.90
446.42	815.58
446.79	815.04
447.16	814.52
447.53	814.18
447.90	810.70
448.27	807.23
448.64	801.99
449.01	798.43
449.37	791.07
449.74	784.45
450.11	775.87
450.48	766.34
450.85	756.75
451.22	748.40
451.59	740.31
451.96	733.08
452.33	722.53
452.70	713.06
453.07	701.64
453.43	690.28
453.80	679.23
454.17	668.63
454.54	658.79
454.91	647.66
455.28	637.07
455.65	627.11
456.02	616.66
456.38	608.20
456.75	597.31
457.12	588.52
457.49	579.63
457.86	571.28
458.23	563.99
458.59	555.90
458.96	547.64
459.33	540.38
459.70	532.96
460.07	527.22
460.43	520.50
460.80	514.18
461.17	508.67
461.54	502.79
461.91	497.27
462.27	491.65
462.64	487.08
463.01	481.85
463.38	476.63
463.74	471.93
464.11	467.75
464.48	463.97
464.85	459.87
465.21	456.70
465.58	453.21
465.95	449.20
466.32	446.01
466.68	442.88
467.05	439.74
467.42	436.64
467.78	433.37
468.15	430.36
468.52	428.19
468.88	425.29
469.25	422.66
469.62	420.57
469.98	418.29
470.35	416.21
470.72	414.34
471.08	412.42
471.45	410.81
471.82	409.01
472.18	407.15
472.55	405.93
472.92	404.46
473.28	403.30
473.65	402.05
474.02	400.92
474.38	399.95
474.75	399.34
475.11	398.52
475.48	398.13
475.85	397.73
476.21	397.48
476.58	397.35
476.94	397.53
477.31	397.58
477.67	397.72
478.04	398.03
478.41	398.44
478.77	399.06
479.14	399.40
479.50	400.18
479.87	401.15
480.23	402.15
480.60	403.06
480.96	404.01
481.33	405.42
481.69	406.79
482.06	408.17
482.42	409.45
482.79	411.03
483.15	412.90
483.52	415.01
483.88	417.04
484.25	419.17
484.61	421.43
484.98	423.80
485.34	426.46
485.71	429.27
486.07	432.29
486.44	435.22
486.80	438.54
487.17	441.93
487.53	445.64
487.90	449.52
488.26	453.76
488.62	458.21
488.99	462.65
489.35	467.38
489.72	472.50
490.08	477.81
490.44	483.22
490.81	488.80
491.17	494.53
491.54	500.64
491.90	506.90
492.26	513.54
492.63	520.58
492.99	527.86
493.36	535.42
493.72	543.35
494.08	551.40
494.45	559.91
494.81	568.79
495.17	577.89
495.54	587.46
495.90	597.46
496.26	607.69
496.63	618.21
496.99	629.04
497.35	640.29
497.72	651.91
498.08	664.01
498.44	676.38
498.80	689.48
499.17	702.95
499.53	716.86
499.89	731.10
500.26	745.43
500.62	760.07
500.98	775.35
501.34	790.83
501.71	807.10
502.07	823.54
502.43	840.48
502.79	857.48
503.16	875.00
503.52	892.74
503.88	911.00
504.24	929.64
504.60	948.55
504.97	967.86
505.33	987.69
505.69	1008.45
506.05	1029.23
506.41	1049.95
506.78	1070.97
507.14	1092.78
507.50	1115.04
507.86	1137.75
508.22	1160.52
508.59	1183.15
508.95	1206.62
509.31	1230.51
509.67	1255.09
510.03	1279.51
510.39	1304.30
510.75	1329.13
511.12	1354.10
511.48	1378.96
511.84	1403.92
512.20	1429.27
512.56	1455.10
512.92	1480.71
513.28	1506.01
513.64	1531.63
514.00	1557.34
514.37	1583.23
514.73	1608.78
515.09	1633.92
515.45	1659.26
515.81	1684.71
516.17	1710.25
516.53	1735.01
516.89	1759.72
517.25	1784.55
517.61	1809.23
517.97	1834.11
518.33	1858.47
518.69	1882.74
519.05	1907.21
519.41	1931.61
519.77	1955.96
520.13	1979.97
520.49	2003.77
520.85	2027.60
521.21	2051.28
521.57	2075.12
521.93	2097.92
522.29	2121.15
522.65	2143.89
523.01	2166.36
523.37	2188.04
523.73	2210.14
524.09	2232.39
524.45	2254.61
524.81	2275.86
525.17	2296.91
525.53	2317.35
525.89	2338.19
526.25	2358.43
526.61	2377.59
526.97	2396.88
527.33	2415.64
527.68	2433.56
528.04	2450.86
528.40	2467.12
528.76	2483.96
529.12	2499.63
529.48	2515.50
529.84	2530.31
530.20	2546.16
530.56	2560.96
530.91	2575.66
531.27	2589.24
531.63	2601.90
531.99	2614.28
532.35	2625.21
532.71	2636.27
533.07	2647.42
533.42	2656.95
533.78	2667.37
534.14	2677.94
534.50	2687.11
534.86	2696.47
535.21	2703.91
535.57	2711.43
535.93	2719.32
536.29	2726.02
536.65	2732.97
537.00	2737.99
537.36	2743.22
537.72	2746.78
538.08	2750.03
538.44	2752.35
538.79	2755.17
539.15	2757.38
539.51	2758.97
539.87	2761.21
540.22	2761.25
540.58	2761.85
540.94	2762.08
541.29	2760.87
541.65	2758.24
542.01	2755.65
542.37	2751.98
542.72	2749.96
543.08	2746.75
543.44	2743.40
543.79	2738.20
544.15	2732.81
544.51	2728.29
544.87	2721.81
545.22	2714.78
545.58	2707.92
545.94	2701.92
546.29	2694.17
546.65	2685.73
547.01	2677.30
547.36	2668.47
547.72	2659.63
548.07	2649.69
548.43	2639.57
548.79	2628.28
549.14	2618.06
549.50	2607.76
549.86	2596.88
550.21	2584.17
550.57	2572.75
550.92	2559.56
551.28	2547.07
551.64	2534.83
551.99	2522.63
552.35	2510.54
552.70	2498.12
553.06	2486.22
553.41	2473.13
553.77	2459.64
554.13	2446.43
554.48	2432.56
554.84	2418.09
555.19	2404.68
555.55	2390.33
555.90	2376.14
556.26	2362.93
556.61	2348.96
556.97	2334.01
557.32	2319.40
557.68	2305.11
558.03	2290.21
558.39	2276.11
558.74	2262.30
559.10	2246.49
559.45	2231.07
559.81	2216.42
560.16	2201.51
560.52	2186.20
560.87	2171.75
561.23	2156.87
561.58	2142.29
561.94	2126.99
562.29	2111.96
562.64	2096.74
563.00	2081.72
563.35	2067.37
563.71	2052.81
564.06	2037.77
564.42	2023.33
564.77	2008.95
565.12	1994.87
565.48	1980.75
565.83	1966.27
566.19	1951.89
566.54	1938.10
566.89	1923.11
567.25	1907.74
567.60	1893.53
567.96	1878.76
568.31	1863.35
568.66	1848.85
569.02	1834.40
569.37	1820.08
569.72	1806.07
570.08	1791.89
570.43	1777.66
570.78	1762.68
571.14	1747.63
571.49	1733.04
571.84	1719.20
572.20	1704.13
572.55	1689.32
572.90	1673.93
573.26	1658.68
573.61	1643.14
573.96	1628.16
574.31	1613.88
574.67	1599.92
575.02	1585.29
575.37	1570.40
575.72	1555.45
576.08	1540.78
576.43	1526.19
576.78	1511.61
577.13	1497.12
577.49	1482.64
577.84	1468.17
578.19	1453.84
578.54	1439.60
578.90	1425.26
579.25	1410.38
579.60	1396.72
579.95	1383.01
580.30	1369.51
580.66	1355.98
581.01	1342.71
581.36	1329.26
581.71	1315.78
582.06	1302.40
582.42	1289.08
582.77	1276.12
583.12	1263.52
583.47	1250.79
583.82	1238.12
584.17	1225.51
584.53	1212.92
584.88	1200.69
585.23	1188.33
585.58	1176.22
585.93	1164.15
586.28	1152.64
586.63	1141.06
586.98	1129.31
587.34	1117.88
587.69	1106.25
588.04	1095.04
588.39	1083.88
588.74	1072.66
589.09	1061.81
589.44	1050.54
589.79	1039.80
590.14	1029.19
590.49	1018.63
590.84	1008.31
591.19	998.08
591.54	987.91
591.89	977.51
592.25	967.19
592.60	956.83
592.95	946.70
593.30	936.65
593.65	926.52
594.00	916.67
594.35	907.50
594.70	897.84
595.05	888.90
595.40	879.72
595.75	870.46
596.10	861.69
596.45	852.77
596.80	844.16
597.15	835.53
597.50	826.95
597.85	818.68
598.19	810.40
598.54	802.17
598.89	794.09
599.24	786.39
599.59	778.77
599.94	771.59
600.29	764.18
600.64	756.91
600.99	749.66
601.34	742.57
601.69	734.92
602.04	727.88
602.39	720.89
602.74	714.13
603.08	707.46
603.43	700.79
603.78	694.21
604.13	687.83
604.48	681.41
604.83	675.29
605.18	669.11
605.53	663.03
605.87	656.82
606.22	650.85
606.57	644.89
606.92	638.83
607.27	632.92
607.62	627.35
607.96	621.82
608.31	616.58
608.66	611.22
609.01	606.06
609.36	601.19
609.70	596.19
610.05	591.11
610.40	586.19
610.75	581.23
611.10	576.57
611.44	571.84
611.79	567.25
612.14	562.59
612.49	557.96
612.83	553.56
613.18	549.35
613.53	545.19
613.88	541.04
614.22	537.08
614.57	533.02
614.92	529.03
615.27	525.18
615.61	521.29
615.96	517.54
616.31	513.83
616.65	510.04
617.00	506.36
617.35	502.84
617.70	499.36
618.04	496.01
618.39	492.61
618.74	489.36
619.08	486.05
619.43	482.81
619.78	479.70
620.12	476.59
620.47	473.65
620.82	470.70
621.16	467.83
621.51	465.10
621.85	462.39
622.20	459.76
622.55	457.10
622.89	454.49
623.24	452.00
623.59	449.53
623.93	447.12
624.28	444.84
624.62	442.72
624.97	440.61
625.32	438.32
625.66	436.05
626.01	433.80
626.35	431.74
626.70	429.65
627.04	427.71
627.39	425.69
627.73	423.69
628.08	421.82
628.43	419.96
628.77	418.04
629.12	416.27
629.46	414.45
629.81	412.77
630.15	411.04
630.50	409.33
630.84	407.67
631.19	406.09
631.53	404.54
631.88	402.80
632.22	401.15
632.57	399.84
632.91	398.51
633.26	397.24
633.60	395.89
633.95	394.61
634.29	393.21
634.64	391.92
634.98	390.47
635.32	389.17
635.67	387.97
636.01	386.78
636.36	385.62
636.70	384.56
637.05	383.37
637.39	382.29
637.73	381.24
638.08	380.22
638.42	379.19
638.77	378.07
639.11	376.92
639.45	375.84
639.80	374.70
640.14	373.62
640.49	372.52
640.83	371.49
641.17	370.44
641.52	369.40
641.86	368.42
642.20	367.63
642.55	366.65
642.89	365.66
643.23	364.73
643.58	363.87
643.92	362.91
644.26	361.98
644.61	361.14
644.95	360.25
645.29	359.33
645.64	358.42
645.98	357.56
646.32	356.80
646.66	355.99
647.01	355.16
647.35	354.38
647.69	353.58
648.04	352.81
648.38	352.04
648.72	351.32
649.06	350.60
649.41	349.81
649.75	349.06
650.09	348.37
650.43	347.65
650.78	346.88
651.12	346.17
651.46	345.48
651.80	344.78
652.14	344.08
652.49	343.44
652.83	342.73
653.17	342.04
653.51	341.38
653.85	340.77
654.20	340.16
654.54	339.47
654.88	338.85
655.22	338.24
655.56	337.54
655.90	336.88
656.25	336.23
656.59	335.61
656.93	335.06
657.27	334.51
657.61	333.88
657.95	333.31
658.29	332.71
658.64	332.20
658.98	331.62
659.32	331.02
659.66	330.48
660.00	329.93
660.34	329.40
660.68	328.84
661.02	328.22
661.36	327.64
661.70	327.07
662.05	326.55
662.39	326.04
662.73	325.64
663.07	325.21
663.41	324.73
663.75	324.20
664.09	323.67
664.43	323.08
664.77	322.58
665.11	322.01
665.45	321.50
665.79	320.96
666.13	320.41
666.47	319.88
666.81	319.29
667.15	318.70
667.49	318.20
667.83	317.78
668.17	317.32
668.51	316.88
668.85	316.48
669.19	316.09
669.53	315.57
669.87	315.05
670.21	314.57
670.55	314.10
670.89	313.74
671.23	313.30
671.57	312.88
671.91	312.51
672.25	312.15
672.58	311.77
672.92	311.30
673.26	310.89
673.60	310.49
673.94	310.11
674.28	309.77
674.62	309.39
674.96	308.92
675.30	308.51
675.64	308.08
675.97	307.60
676.31	307.09
676.65	306.65
676.99	306.29
677.33	305.81
677.67	305.38
678.01	304.84
678.34	304.41
678.68	303.98
679.02	303.50
679.36	303.04
679.70	302.56
680.04	302.14
680.37	301.70
680.71	301.28
681.05	300.85
681.39	300.41
681.73	299.93
682.06	299.47
682.40	299.05
682.74	298.67
683.08	298.32
683.42	297.88
683.75	297.46
684.09	296.93
684.43	296.47
684.77	295.98
685.10	295.58
685.44	295.20
685.78	294.78
686.12	294.36
686.45	293.91
686.79	293.45
687.13	293.03
687.46	292.58
687.80	292.14
688.14	291.66
688.48	291.20
688.81	290.76
689.15	290.39
689.49	289.90
689.82	289.41
690.16	288.86
690.50	288.43
690.83	288.00
691.17	287.55
691.51	287.12
691.84	286.75
692.18	286.32
692.52	285.81
692.85	285.36
693.19	284.99
693.52	284.58
693.86	284.19
694.20	283.76
694.53	283.34
694.87	282.90
695.21	282.46
695.54	282.06
695.88	281.63
696.21	281.13
696.55	280.71
696.88	280.29
697.22	279.89
697.56	279.50
697.89	279.03
698.23	278.62
698.56	278.18
698.90	277.76
699.23	277.32
699.57	276.95
699.90	276.51
700.24	276.03
700.58	275.64
700.91	275.27
701.25	275.04
701.58	274.72
701.92	274.37
702.25	274.01
702.59	273.61
702.92	273.23
703.26	272.83
703.59	272.44
703.93	272.21
704.26	271.86
704.60	271.46
704.93	271.07
705.26	270.67
705.60	270.34
705.93	269.93
706.27	269.63
706.60	269.29
706.94	268.99
707.27	268.60
707.61	268.19
707.94	267.80
708.27	267.28
708.61	266.85
708.94	266.48
709.28	266.11
709.61	265.76
709.94	265.45
710.28	265.15
710.61	264.85
710.95	264.39
711.28	264.17
711.61	263.85
711.95	263.58
712.28	263.25
712.61	262.88
712.95	262.65
713.28	262.39
713.61	262.02
713.95	261.65
714.28	261.38
714.61	261.08
714.95	260.77
715.28	260.47
715.61	260.18
715.95	259.89
716.28	259.60
716.61	259.33
716.95	258.99
717.28	258.70
717.61	258.40
717.94	258.10
718.28	257.69
718.61	257.41
718.94	257.11
719.27	256.85
719.61	256.62
719.94	256.32
720.27	255.99
720.60	255.73
720.94	255.48
721.27	255.22
721.60	254.99
721.93	254.71
722.27	254.51
722.60	254.28
722.93	254.01
723.26	253.78
723.59	253.51
723.93	253.32
724.26	253.08
724.59	252.85
724.92	252.64
725.25	252.47
725.59	252.25
725.92	252.06
726.25	251.84
726.58	251.63
726.91	251.37
727.24	251.15
727.57	250.94
727.91	250.67
728.24	250.48
728.57	250.26
728.90	250.11
729.23	249.85
729.56	249.72
729.89	249.52
730.22	249.31
730.55	249.13
730.89	248.90
731.22	248.68
731.55	248.47
731.88	248.27
732.21	248.05
732.54	247.83
732.87	247.66
733.20	247.49
733.53	247.29
733.86	247.15
734.19	246.94
734.52	246.81
734.85	246.78
735.18	246.58
735.51	246.48
735.84	246.31
736.17	246.18
736.50	245.92
736.83	245.99
737.16	245.83
737.49	245.69
737.82	245.51
738.15	245.40
738.48	245.23
738.81	245.05
739.14	244.87
739.47	244.72
739.80	244.55
740.13	244.43
740.46	244.26
740.79	244.07
741.12	243.91
741.45	243.72
741.78	243.50
742.11	243.42
742.44	243.22
742.77	243.10
743.10	242.92
743.43	242.78
743.75	242.45
744.08	242.57
744.41	242.39
744.74	242.26
745.07	242.10
745.40	242.04
745.73	241.99
746.06	241.87
746.39	241.75
746.71	241.63
747.04	241.47
747.37	241.35
747.70	241.27
748.03	241.16
748.36	241.09
748.68	240.95
749.01	240.78
749.34	240.65
749.67	240.54
750.00	240.48
750.33	240.50
750.65	240.38
750.98	240.02
751.31	239.94
751.64	239.86
751.97	239.82
752.29	239.65
752.62	239.48
752.95	239.36
753.28	239.22
753.60	239.09
753.93	239.02
754.26	238.93
754.59	238.76
754.91	238.62
755.24	238.47
755.57	238.45
755.90	238.33
756.22	238.21
756.55	238.06
756.88	237.90
757.20	237.67
757.53	237.52
757.86	237.41
758.19	237.30
758.51	237.19
758.84	237.01
759.17	236.91
759.49	236.80
759.82	236.80
760.15	236.75
760.47	236.66
760.80	236.53
761.13	236.46
761.45	236.38
761.78	236.31
762.11	236.23
762.43	236.05
762.76	235.97
763.08	235.91
763.41	235.85
763.74	235.76
764.06	235.68
764.39	235.62
764.71	235.55
765.04	235.48
765.37	235.39
765.69	235.32
766.02	235.25
766.34	235.18
766.67	235.03
767.00	234.98
767.32	234.99
767.65	235.06
767.97	234.99
768.30	234.92
768.62	234.86
768.95	234.78
769.27	234.73
769.60	234.68
769.92	234.60
770.25	234.51
770.57	234.44
770.90	234.37
771.22	234.29
771.55	234.26
771.87	234.20
772.20	234.15
772.52	234.24
772.85	234.41
773.17	234.37
773.50	234.31
773.82	234.24
774.15	234.11
774.47	233.94
774.80	233.87
775.12	233.83
775.45	233.79
775.77	233.76
776.09	233.73
776.42	233.70
776.74	233.72
777.07	233.67
777.39	233.64
777.72	233.60
778.04	233.59
778.36	233.53
778.69	233.50
779.01	233.47
779.33	233.28
779.66	233.04
779.98	232.99
780.31	232.95
780.63	232.98
780.95	232.96
781.28	232.92
781.60	232.88
781.92	232.86
782.25	232.81
782.57	232.79
782.89	232.72
783.22	232.66
783.54	232.57
783.86	232.57
784.19	232.53
784.51	232.55
784.83	232.48
785.16	232.45
785.48	232.42
785.80	232.37
786.12	232.36
786.45	232.32
786.77	232.31
787.09	232.28
787.42	232.19
787.74	232.17
788.06	232.14
788.38	232.10
788.71	232.05
789.03	232.04
789.35	232.02
789.67	231.99
789.99	231.98
790.32	231.95
790.64	231.94
790.96	232.07
791.28	232.00
791.61	231.97
791.93	231.95
792.25	231.92
792.57	232.03
792.89	231.97
793.21	231.97
793.54	231.91
793.86	231.87
794.18	231.87
794.50	231.80
794.82	231.77
795.14	231.78
795.47	231.80
795.79	231.77
796.11	231.71
796.43	231.67
796.75	231.65
797.07	231.62
797.39	231.58
797.71	231.41
798.04	231.40
798.36	231.40
798.68	231.39
799.00	231.38
799.32	231.26
799.64	231.27
799.96	231.24
800.28	231.29
800.60	231.25
800.92	231.24
801.24	231.23
801.56	231.24
801.89	231.21
802.21	231.19
802.53	231.14
802.85	231.17
803.17	231.24
803.49	231.20
803.81	231.16
804.13	231.13
804.45	231.10
804.77	231.11
805.09	231.08
805.41	231.05
805.73	230.98
806.05	230.94
806.37	230.93
806.69	230.89
807.01	230.82
807.33	230.83
807.65	230.75
807.97	230.81
808.28	230.77
808.60	230.76
808.92	230.72
809.24	230.83
809.56	230.78
809.88	230.68
810.20	230.69
810.52	230.72
810.84	230.69
811.16	230.65
811.48	230.61
811.80	230.65
812.12	230.63
812.43	230.66
812.75	230.64
813.07	230.60
813.39	230.62
813.71	230.59
814.03	230.55
814.35	230.55
814.67	230.43
814.98	230.42
815.30	230.39
815.62	230.35
815.94	230.21
816.26	230.22
816.58	230.18
816.89	230.18
817.21	230.12
817.53	230.10
817.85	230.13
818.17	230.09
818.48	230.00
818.80	230.02
819.12	229.98
819.44	229.96
819.76	229.93
820.07	229.89
820.39	229.88
820.71	229.88
821.03	229.87
821.34	229.86
821.66	229.87
821.98	229.88
822.30	229.88
822.61	229.98
822.93	229.94
823.25	229.94
823.57	229.91
823.88	229.93
824.20	229.93
824.52	229.94
824.83	229.94
825.15	229.92
825.47	229.91
825.79	229.91
826.10	229.89
826.42	229.90
826.74	229.92
827.05	229.92
827.37	229.92
827.69	229.90
828.00	229.91
828.32	229.89
828.64	229.84
828.95	229.93
829.27	229.87
829.58	229.88
829.90	229.90
830.22	229.89
830.53	229.86
830.85	229.83
831.17	229.78
831.48	229.77
831.80	229.78
832.11	229.76
832.43	229.73
832.75	229.72
833.06	229.81
833.38	229.75
833.69	229.74
834.01	229.74
834.32	229.72
834.64	229.69
834.96	229.69
835.27	229.71
835.59	229.62
835.90	229.60
836.22	229.58
836.53	229.53
836.85	229.51
837.16	229.69
837.48	229.70
837.79	229.76
838.11	229.76
838.42	229.77
838.74	229.78
839.05	229.78
839.37	229.77
839.68	229.66
840.00	229.66
840.31	229.66
840.63	229.65
840.94	229.65
841.26	229.64
841.57	229.63
841.88	229.63
842.20	229.59
842.51	229.57
842.83	229.55
843.14	229.72
843.46	229.71
843.77	229.60
844.08	229.58
844.40	229.52
844.71	229.50
845.03	229.48
845.34	229.47
845.65	229.45
845.97	229.44
846.28	229.45
846.60	229.45
846.91	229.42
847.22	229.42
847.54	229.44
847.85	229.45
848.16	229.46
848.48	229.42
848.79	229.50
849.10	229.51
849.42	229.51
849.73	229.35
850.04	229.34
850.36	229.29
850.67	229.31
850.98	229.29
851.30	229.30
851.61	229.30
851.92	229.28
852.23	229.35
852.55	229.35
852.86	229.36
853.17	229.38
853.49	229.41
853.80	229.43
854.11	229.46
854.42	229.47
854.74	229.43
855.05	229.44
855.36	229.35
855.67	229.34
855.99	229.36
856.30	229.57
856.61	229.56
856.92	229.56
857.23	229.57
857.55	229.57
857.86	229.56
858.17	229.57
858.48	229.56
858.79	229.52
859.11	229.53
859.42	229.51
859.73	229.46
860.04	229.44
860.35	229.39
860.66	229.32
860.98	229.30
861.29	229.33
861.60	229.31
861.91	229.34
862.22	229.32
862.53	229.28
862.84	229.06
863.16	229.12
863.47	229.07
863.78	229.04
864.09	229.03
864.40	229.05
864.71	229.05
865.02	229.07
865.33	229.04
865.64	229.00
865.95	229.03
866.27	229.15
866.58	229.13
866.89	229.14
867.20	229.12
867.51	229.10
867.82	229.08
868.13	229.12
868.44	229.09
868.75	229.13
869.06	229.16
869.37	229.19
869.68	229.12
869.99	229.16
870.30	229.18
870.61	229.20
870.92	229.17
871.23	229.15
871.54	229.17
871.85	229.21
872.16	229.25
872.47	229.21
872.78	229.10
873.09	229.13
873.40	229.11
873.71	229.14
874.02	229.15
874.33	229.14
874.64	229.10
874.95	229.14
875.26	229.09
875.56	229.08
875.87	229.05
876.18	229.06
876.49	229.22
876.80	229.20
877.11	229.16
877.42	229.19
877.73	229.20
878.04	229.16
878.35	229.16
878.66	229.17
878.96	229.18
879.27	229.19
879.58	229.18
879.89	229.19
880.20	229.23
880.51	229.23
880.82	229.24
881.12	229.25
881.43	229.22
881.74	229.19
882.05	229.16
882.36	229.17
882.67	229.18
882.97	228.98
883.28	228.95
883.59	228.97
883.90	228.97
884.21	228.98
884.51	228.97
884.82	228.94
885.13	228.94
885.44	228.94
885.74	228.94
886.05	228.92
886.36	228.91
886.67	228.85
886.98	228.94
887.28	228.95
887.59	228.96
887.90	228.95
888.20	228.95
888.51	229.00
888.82	228.96
889.13	228.97
889.43	229.14
889.74	229.14
890.05	229.13
890.35	229.10
890.66	229.06
890.97	229.05
891.28	229.02
891.58	229.01
891.89	229.00
892.20	228.98
892.50	228.96
892.81	228.94
893.12	228.92
893.42	228.83
893.73	228.82
894.04	228.81
894.34	228.83
894.65	228.83
894.95	228.81
895.26	228.83
895.57	228.91
895.87	228.73
896.18	228.74
896.48	228.75
896.79	228.76
897.10	228.78
897.40	228.77
897.71	228.79
898.01	228.77
898.32	228.78
898.63	228.78
898.93	228.80
899.24	228.82
899.54	228.82
899.85	228.80
900.15	228.80
900.46	228.79
900.76	228.80
901.07	228.80
901.38	228.78
901.68	228.82
901.99	228.72
902.29	228.74
902.60	228.74
902.90	228.73
903.21	228.72
903.51	228.70
903.82	228.74
904.12	228.75
904.43	228.75
904.73	228.74
905.03	228.74
905.34	228.89
905.64	228.87
905.95	228.88
906.25	228.88
906.56	228.89
906.86	228.89
907.17	228.88
907.47	228.90
907.77	228.91
908.08	228.85
908.38	228.85
908.69	228.86
908.99	228.89
909.30	228.88
909.60	228.88
909.90	228.89
910.21	228.86
910.51	228.82
910.81	228.84
911.12	228.84
911.42	228.86
911.73	228.68
912.03	228.70
912.33	228.73
912.64	228.72
912.94	228.69
913.24	228.67
913.55	228.66
913.85	228.64
914.15	228.67
914.46	228.71
914.76	228.70
915.06	228.69
915.37	228.66
915.67	228.67
915.97	228.67
916.27	228.63
916.58	228.64
916.88	228.64
917.18	228.62
917.49	228.75
917.79	228.73
918.09	228.76
918.39	228.80
918.70	228.77
919.00	228.79
919.30	228.87
919.60	228.86
919.91	228.82
920.21	228.82
920.51	228.77
920.81	228.75
921.12	228.75
921.42	228.74
921.72	228.75
922.02	228.75
922.32	228.78
922.63	228.79
922.93	228.88
923.23	228.91
923.53	228.90
923.83	228.78
924.13	228.79
924.44	228.79
924.74	228.84
925.04	228.90
925.34	228.90
925.64	228.84
925.94	228.84
926.24	228.95
926.55	228.93
926.85	228.95
927.15	228.96
927.45	228.96
927.75	228.96
928.05	228.94
928.35	228.91
928.65	228.94
928.95	228.96
929.26	228.88
929.56	228.90
929.86	228.93
930.16	228.90
930.46	228.89
930.76	228.89
931.06	228.78
931.36	228.73
931.66	228.75
931.96	228.77
932.26	228.78
932.56	228.72
932.86	228.74
933.16	228.75
933.46	228.74
933.76	228.71
934.06	228.74
934.36	228.82
934.66	228.81
934.96	228.80
935.26	228.79
935.56	228.82
935.86	228.76
936.16	228.73
936.46	228.71
936.76	228.70
937.06	228.67
937.36	228.69
937.66	228.69
937.96	228.68
938.26	228.65
938.56	228.65
938.86	228.65
939.16	228.68
939.46	228.69
939.76	228.70
940.06	228.71
940.35	228.70
940.65	228.60
940.95	228.61
941.25	228.56
941.55	228.55
941.85	228.54
942.15	228.57
942.45	228.63
942.75	228.65
943.04	228.66
943.34	228.68
943.64	228.67
943.94	228.63
944.24	228.64
944.54	228.63
944.84	228.62
945.13	228.57
945.43	228.53
945.73	228.51
946.03	228.50
946.33	228.47
946.62	228.45
946.92	228.46
947.22	228.47
947.52	228.49
947.82	228.50
948.11	228.48
948.41	228.45
948.71	228.39
949.01	228.39
949.31	228.36
949.60	228.34
949.90	228.37
950.20	228.37
950.50	228.34
950.79	228.32
951.09	228.33
951.39	228.33
951.69	228.32
951.98	228.37
952.28	228.38
952.58	228.38
952.87	228.37
953.17	228.39
953.47	228.37
953.76	228.36
954.06	228.32
954.36	228.31
954.66	228.30
954.95	228.34
955.25	228.35
955.55	228.38
955.84	228.35
956.14	228.36
956.44	228.38
956.73	228.38
957.03	228.40
957.32	228.42
957.62	228.43
957.92	228.46
958.21	228.45
958.51	228.66
958.81	228.69
959.10	228.72
959.40	228.76
959.69	228.79
959.99	228.82
960.29	228.84
960.58	228.84
960.88	228.92
961.17	228.89
961.47	228.91
961.76	228.90
962.06	228.95
962.36	228.94
962.65	228.94
962.95	228.95
963.24	228.94
963.54	228.93
963.83	228.94
964.13	228.94
964.42	228.90
964.72	228.74
965.01	228.74
965.31	228.70
965.60	228.66
965.90	228.76
966.19	228.71
966.49	228.71
966.78	228.71
967.08	228.69
967.37	228.70
967.67	228.65
967.96	228.68
968.26	228.66
968.55	228.69
968.85	228.68
969.14	228.69
969.43	228.69
969.73	228.69
970.02	228.69
970.32	228.67
970.61	228.65
970.91	228.59
971.20	228.56
971.49	228.56
971.79	228.58
972.08	228.44
972.38	228.47
972.67	228.46
972.96	228.47
973.26	228.43
973.55	228.49
973.85	228.47
974.14	228.44
974.43	228.44
974.73	228.41
975.02	228.39
975.31	228.37
975.61	228.35
975.90	228.34
976.19	228.32
976.49	228.34
976.78	228.36
977.07	228.36
977.37	228.37
977.66	228.38
977.95	228.37
978.24	228.39
978.54	228.42
978.83	228.43
979.12	228.42
979.42	228.43
979.71	228.39
980.00	228.40
980.29	228.42
980.59	228.39
980.88	228.44
981.17	228.43
981.46	228.46
981.76	228.45
982.05	228.50
982.34	228.52
982.63	228.51
982.93	228.52
983.22	228.53
983.51	228.55
983.80	228.58
984.09	228.60
984.39	228.59
984.68	228.55
984.97	228.53
985.26	228.53
985.55	228.52
985.85	228.49
986.14	228.53
986.43	228.55
986.72	228.54
987.01	228.48
987.30	228.49
987.59	228.49
987.89	228.49
988.18	228.44
988.47	228.43
988.76	228.41
989.05	228.41
989.34	228.40
989.63	228.46
989.92	228.42
990.22	228.39
990.51	228.39
990.80	228.40
991.09	228.44
991.38	228.47
991.67	228.47
991.96	228.46
992.25	228.45
992.54	228.42
992.83	228.44
993.12	228.44
993.41	228.47
993.70	228.52
993.99	228.56
994.28	228.59
994.58	228.60
994.87	228.59
995.16	228.58
995.45	228.56
995.74	228.49
996.03	228.53
996.32	228.57
996.61	228.59
996.90	228.58
997.19	228.56
997.48	228.56
997.77	228.54
998.06	228.56
998.34	228.56
998.63	228.55
998.92	228.55
999.21	228.59
999.50	228.59
999.79	228.54
1000.08	228.53
1000.37	228.53
1000.66	228.52
1000.95	228.57
1001.24	228.59
1001.53	228.62
1001.82	228.61
1002.11	228.57
1002.40	228.57
1002.68	228.61
1002.97	228.75
1003.26	228.71
1003.55	228.67
1003.84	228.67
1004.13	228.72
1004.42	228.72
1004.71	228.71
1004.99	228.70
1005.28	228.73
1005.57	228.70
1005.86	228.69
1006.15	228.67
1006.44	228.64
1006.72	228.66
1007.01	228.61
1007.30	228.62
1007.59	228.60
1007.88	228.60
1008.17	228.62
1008.45	228.59
1008.74	228.52
1009.03	228.43
1009.32	228.45
1009.60	228.46
1009.89	228.45
1010.18	228.39
1010.47	228.38
1010.76	228.38
1011.04	228.38
1011.33	228.37
1011.62	228.38
1011.91	228.39
1012.19	228.40
1012.48	228.40
1012.77	228.39
1013.05	228.46
1013.34	228.46
1013.63	228.46
1013.92	228.47
1014.20	228.46
1014.49	228.47
1014.78	228.50
1015.06	228.44
1015.35	228.43
1015.64	228.46
1015.92	228.48
1016.21	228.49
1016.50	228.49
1016.78	228.51
1017.07	228.53
1017.36	228.48
1017.64	228.47
1017.93	228.49
1018.22	228.46
1018.50	228.47
1018.79	228.46
1019.08	228.40
1019.36	228.38
1019.65	228.36
1019.93	228.41
1020.22	228.43
1020.51	228.53
1020.79	228.51
1021.08	228.00
1021.36	228.32
1021.65	228.21
1021.94	228.42
1022.22	228.25
1022.51	228.07
1022.79	229.30
1023.08	228.68
1023.36	230.91
1023.65	228.12
>>>>>End Processed Spectral Data<<<<<
