SpectraSuite Data File
++++++++++++++++++++++++++++++++++++
Date: Tue Oct 06 14:01:30 EDT 2015
User: lab3
Dark Spectrum Present: No
Reference Spectrum Present: No
Number of Sampled Component Spectra: 1
Spectrometers: USB2E7196
Integration Time (usec): 66000 (USB2E7196)
Spectra Averaged: 1000 (USB2E7196)
Boxcar Smoothing: 10 (USB2E7196)
Correct for Electrical Dark: No (USB2E7196)
Strobe/Lamp Enabled: No (USB2E7196)
Correct for Detector Non-linearity: No (USB2E7196)
Correct for Stray Light: No (USB2E7196)
Number of Pixels in Processed Spectrum: 2048
>>>>>Begin Processed Spectral Data<<<<<
339.09	0.00
339.48	215.40
339.86	217.00
340.24	218.14
340.63	219.56
341.01	223.84
341.39	222.40
341.78	223.88
342.16	225.12
342.54	225.42
342.93	213.90
343.31	224.71
343.69	225.25
344.07	225.71
344.46	226.16
344.84	226.56
345.22	226.75
345.60	227.03
345.99	227.23
346.37	227.38
346.75	227.48
347.13	227.57
347.52	227.66
347.90	227.77
348.28	227.81
348.66	227.89
349.05	227.88
349.43	227.95
349.81	228.03
350.19	228.11
350.57	228.19
350.96	228.29
351.34	228.39
351.72	228.50
352.10	228.62
352.48	228.69
352.87	228.74
353.25	228.82
353.63	228.88
354.01	228.93
354.39	229.01
354.77	229.10
355.15	229.22
355.54	229.26
355.92	229.26
356.30	229.34
356.68	229.52
357.06	229.60
357.44	229.65
357.82	229.71
358.20	229.92
358.58	229.99
358.97	230.04
359.35	230.14
359.73	230.23
360.11	230.27
360.49	230.33
360.87	230.39
361.25	230.46
361.63	230.57
362.01	230.64
362.39	230.65
362.77	230.70
363.15	230.72
363.53	230.76
363.91	230.81
364.29	230.84
364.67	230.70
365.05	230.72
365.43	230.76
365.81	230.80
366.19	230.75
366.57	230.84
366.95	230.85
367.33	230.81
367.71	230.82
368.09	230.86
368.47	230.85
368.85	230.83
369.23	230.85
369.61	230.78
369.99	230.81
370.37	230.84
370.75	230.95
371.13	230.92
371.51	230.88
371.89	230.87
372.27	230.86
372.65	230.84
373.03	230.81
373.41	230.76
373.78	230.70
374.16	230.57
374.54	230.47
374.92	230.41
375.30	230.38
375.68	230.30
376.06	230.25
376.44	230.21
376.82	230.17
377.19	230.13
377.57	230.08
377.95	229.98
378.33	229.91
378.71	229.71
379.09	229.66
379.47	229.65
379.84	229.58
380.22	229.50
380.60	229.42
380.98	229.38
381.36	229.33
381.73	229.27
382.11	229.25
382.49	229.22
382.87	229.16
383.25	229.11
383.62	229.27
384.00	229.20
384.38	229.16
384.76	229.16
385.13	229.16
385.51	229.12
385.89	229.06
386.27	229.02
386.64	229.03
387.02	228.97
387.40	228.93
387.78	228.90
388.15	228.88
388.53	228.85
388.91	228.82
389.29	228.79
389.66	228.79
390.04	228.75
390.42	228.76
390.79	228.75
391.17	228.74
391.55	228.53
391.92	228.52
392.30	228.54
392.68	228.50
393.05	228.49
393.43	228.51
393.81	228.53
394.18	228.50
394.56	228.52
394.94	228.57
395.31	228.57
395.69	228.65
396.06	228.71
396.44	228.76
396.82	228.77
397.19	228.90
397.57	228.92
397.95	228.99
398.32	228.98
398.70	229.06
399.07	229.14
399.45	229.21
399.82	229.28
400.20	229.34
400.58	229.42
400.95	229.44
401.33	229.56
401.70	229.79
402.08	229.95
402.45	230.07
402.83	230.24
403.20	230.42
403.58	230.55
403.95	230.75
404.33	230.98
404.71	231.20
405.08	231.51
405.46	231.76
405.83	232.04
406.21	232.34
406.58	232.66
406.96	233.01
407.33	233.37
407.70	233.79
408.08	234.37
408.45	234.88
408.83	235.43
409.20	235.93
409.58	236.39
409.95	237.01
410.33	237.68
410.70	238.33
411.08	239.06
411.45	239.86
411.82	240.67
412.20	241.58
412.57	242.68
412.95	243.55
413.32	244.67
413.69	245.83
414.07	247.08
414.44	248.44
414.82	249.83
415.19	251.46
415.56	253.12
415.94	254.84
416.31	256.76
416.68	258.70
417.06	260.94
417.43	263.03
417.81	265.45
418.18	267.93
418.55	270.61
418.93	273.43
419.30	276.36
419.67	279.47
420.04	282.69
420.42	286.05
420.79	289.91
421.16	293.84
421.54	297.80
421.91	301.93
422.28	306.23
422.66	310.84
423.03	315.22
423.40	319.83
423.77	324.75
424.15	329.77
424.52	334.99
424.89	340.65
425.26	346.27
425.64	351.49
426.01	357.34
426.38	363.32
426.75	369.46
427.13	375.73
427.50	382.31
427.87	389.09
428.24	395.91
428.61	402.43
428.99	409.48
429.36	417.25
429.73	424.68
430.10	432.08
430.47	439.64
430.85	447.48
431.22	455.84
431.59	464.39
431.96	472.75
432.33	482.05
432.70	490.90
433.08	501.42
433.45	511.31
433.82	521.01
434.19	531.86
434.56	542.54
434.93	552.93
435.30	563.20
435.68	574.91
436.05	586.34
436.42	597.81
436.79	608.29
437.16	619.59
437.53	631.75
437.90	643.92
438.27	655.83
438.64	668.61
439.01	680.27
439.38	691.08
439.75	701.46
440.13	713.26
440.50	724.52
440.87	733.46
441.24	743.28
441.61	754.06
441.98	762.03
442.35	771.47
442.72	781.11
443.09	790.36
443.46	796.47
443.83	801.05
444.20	804.79
444.57	810.29
444.94	813.69
445.31	817.08
445.68	819.93
446.05	822.14
446.42	821.93
446.79	821.51
447.16	821.11
447.53	820.90
447.90	817.55
448.27	814.26
448.64	809.08
449.01	805.67
449.37	798.42
449.74	791.87
450.11	783.35
450.48	773.90
450.85	764.38
451.22	756.05
451.59	748.02
451.96	740.87
452.33	730.32
452.70	720.86
453.07	709.40
453.43	698.04
453.80	686.91
454.17	676.30
454.54	666.40
454.91	655.17
455.28	644.51
455.65	634.42
456.02	623.84
456.38	615.30
456.75	604.21
457.12	595.26
457.49	586.24
457.86	577.72
458.23	570.25
458.59	561.97
458.96	553.55
459.33	546.09
459.70	538.50
460.07	532.63
460.43	525.74
460.80	519.29
461.17	513.62
461.54	507.59
461.91	501.93
462.27	496.19
462.64	491.51
463.01	486.15
463.38	480.84
463.74	476.00
464.11	471.72
464.48	467.89
464.85	463.71
465.21	460.47
465.58	456.91
465.95	452.85
466.32	449.59
466.68	446.40
467.05	443.20
467.42	440.09
467.78	436.76
468.15	433.70
468.52	431.46
468.88	428.52
469.25	425.82
469.62	423.67
469.98	421.32
470.35	419.18
470.72	417.30
471.08	415.34
471.45	413.70
471.82	411.87
472.18	409.96
472.55	408.73
472.92	407.22
473.28	406.00
473.65	404.69
474.02	403.51
474.38	402.49
474.75	401.86
475.11	400.96
475.48	400.52
475.85	400.08
476.21	399.85
476.58	399.66
476.94	399.83
477.31	399.85
477.67	399.99
478.04	400.29
478.41	400.67
478.77	401.25
479.14	401.60
479.50	402.35
479.87	403.32
480.23	404.26
480.60	405.17
480.96	406.10
481.33	407.51
481.69	408.87
482.06	410.23
482.42	411.51
482.79	413.07
483.15	414.94
483.52	417.05
483.88	419.05
484.25	421.19
484.61	423.42
484.98	425.80
485.34	428.48
485.71	431.27
486.07	434.25
486.44	437.18
486.80	440.50
487.17	443.86
487.53	447.57
487.90	451.41
488.26	455.65
488.62	460.09
488.99	464.52
489.35	469.22
489.72	474.30
490.08	479.61
490.44	485.04
490.81	490.62
491.17	496.33
491.54	502.42
491.90	508.67
492.26	515.33
492.63	522.33
492.99	529.55
493.36	537.10
493.72	545.05
494.08	553.11
494.45	561.58
494.81	570.46
495.17	579.53
495.54	589.13
495.90	599.10
496.26	609.35
496.63	619.84
496.99	630.65
497.35	641.89
497.72	653.50
498.08	665.55
498.44	677.89
498.80	690.99
499.17	704.44
499.53	718.34
499.89	732.59
500.26	746.91
500.62	761.55
500.98	776.85
501.34	792.35
501.71	808.62
502.07	825.12
502.43	842.11
502.79	859.18
503.16	876.74
503.52	894.53
503.88	912.74
504.24	931.46
504.60	950.43
504.97	969.84
505.33	989.73
505.69	1010.54
506.05	1031.38
506.41	1052.13
506.78	1073.21
507.14	1095.06
507.50	1117.37
507.86	1140.14
508.22	1163.05
508.59	1185.78
508.95	1209.33
509.31	1233.26
509.67	1257.88
510.03	1282.37
510.39	1307.32
510.75	1332.24
511.12	1357.25
511.48	1382.29
511.84	1407.34
512.20	1432.88
512.56	1458.91
512.92	1484.61
513.28	1510.10
513.64	1535.92
514.00	1561.87
514.37	1587.98
514.73	1613.81
515.09	1639.11
515.45	1664.69
515.81	1690.36
516.17	1716.07
516.53	1741.09
516.89	1766.10
517.25	1791.16
517.61	1816.07
517.97	1841.17
518.33	1865.82
518.69	1890.40
519.05	1915.14
519.41	1939.84
519.77	1964.41
520.13	1988.69
520.49	2012.89
520.85	2036.95
521.21	2060.96
521.57	2085.12
521.93	2108.15
522.29	2131.72
522.65	2154.91
523.01	2177.81
523.37	2199.87
523.73	2222.38
524.09	2244.99
524.45	2267.63
524.81	2289.49
525.17	2311.12
525.53	2332.06
525.89	2353.34
526.25	2374.19
526.61	2393.91
526.97	2413.81
527.33	2433.24
527.68	2451.77
528.04	2469.76
528.40	2486.83
528.76	2504.32
529.12	2520.67
529.48	2537.47
529.84	2552.99
530.20	2569.52
530.56	2585.01
530.91	2600.42
531.27	2614.79
531.63	2628.15
531.99	2641.32
532.35	2652.84
532.71	2664.41
533.07	2676.24
533.42	2686.57
533.78	2697.61
534.14	2708.94
534.50	2718.86
534.86	2728.94
535.21	2737.08
535.57	2745.18
535.93	2753.67
536.29	2761.00
536.65	2768.56
537.00	2774.08
537.36	2779.82
537.72	2783.94
538.08	2787.77
538.44	2790.70
538.79	2794.01
539.15	2796.74
539.51	2798.76
539.87	2801.47
540.22	2802.09
540.58	2803.20
540.94	2803.92
541.29	2803.17
541.65	2800.94
542.01	2798.70
542.37	2795.43
542.72	2793.90
543.08	2791.19
543.44	2788.30
543.79	2783.65
544.15	2778.84
544.51	2774.83
544.87	2768.89
545.22	2762.39
545.58	2756.05
545.94	2750.50
546.29	2743.29
546.65	2735.29
547.01	2727.42
547.36	2719.27
547.72	2711.01
548.07	2701.50
548.43	2691.75
548.79	2680.95
549.14	2671.12
549.50	2661.25
549.86	2650.75
550.21	2638.32
550.57	2627.18
550.92	2614.20
551.28	2601.92
551.64	2589.83
551.99	2577.84
552.35	2566.06
552.70	2553.93
553.06	2542.21
553.41	2529.36
553.77	2516.04
554.13	2503.12
554.48	2489.38
554.84	2475.06
555.19	2461.70
555.55	2447.58
555.90	2433.63
556.26	2420.69
556.61	2406.98
556.97	2392.22
557.32	2377.78
557.68	2363.70
558.03	2348.92
558.39	2335.06
558.74	2321.42
559.10	2305.78
559.45	2290.57
559.81	2276.08
560.16	2261.27
560.52	2246.09
560.87	2231.65
561.23	2216.85
561.58	2202.35
561.94	2187.13
562.29	2172.05
562.64	2156.98
563.00	2141.95
563.35	2127.55
563.71	2112.92
564.06	2097.83
564.42	2083.28
564.77	2068.85
565.12	2054.71
565.48	2040.55
565.83	2025.97
566.19	2011.52
566.54	1997.54
566.89	1982.44
567.25	1966.80
567.60	1952.35
567.96	1937.36
568.31	1921.83
568.66	1907.06
569.02	1892.31
569.37	1877.73
569.72	1863.41
570.08	1848.92
570.43	1834.44
570.78	1819.21
571.14	1803.94
571.49	1789.11
571.84	1775.09
572.20	1759.75
572.55	1744.61
572.90	1729.00
573.26	1713.41
573.61	1697.53
573.96	1682.28
574.31	1667.64
574.67	1653.52
575.02	1638.54
575.37	1623.31
575.72	1608.00
576.08	1593.05
576.43	1578.19
576.78	1563.36
577.13	1548.64
577.49	1533.92
577.84	1519.14
578.19	1504.50
578.54	1489.88
578.90	1475.17
579.25	1459.89
579.60	1445.87
579.95	1431.78
580.30	1417.86
580.66	1404.02
581.01	1390.37
581.36	1376.59
581.71	1362.72
582.06	1348.86
582.42	1335.23
582.77	1321.91
583.12	1308.90
583.47	1295.77
583.82	1282.75
584.17	1269.77
584.53	1256.77
584.88	1244.17
585.23	1231.40
585.58	1218.86
585.93	1206.36
586.28	1194.49
586.63	1182.51
586.98	1170.38
587.34	1158.62
587.69	1146.60
588.04	1134.95
588.39	1123.44
588.74	1111.85
589.09	1100.62
589.44	1088.93
589.79	1077.79
590.14	1066.80
590.49	1055.88
590.84	1045.24
591.19	1034.63
591.54	1024.02
591.89	1013.17
592.25	1002.39
592.60	991.58
592.95	981.06
593.30	970.57
593.65	959.98
594.00	949.67
594.35	940.02
594.70	929.91
595.05	920.50
595.40	910.96
595.75	901.21
596.10	891.92
596.45	882.52
596.80	873.43
597.15	864.34
597.50	855.35
597.85	846.68
598.19	837.95
598.54	829.26
598.89	820.72
599.24	812.62
599.59	804.63
599.94	797.12
600.29	789.38
600.64	781.77
600.99	774.10
601.34	766.70
601.69	758.69
602.04	751.28
602.39	744.00
602.74	736.92
603.08	729.96
603.43	723.05
603.78	716.24
604.13	709.63
604.48	702.99
604.83	696.59
605.18	690.17
605.53	683.90
605.87	677.45
606.22	671.32
606.57	665.13
606.92	658.79
607.27	652.62
607.62	646.81
607.96	641.08
608.31	635.65
608.66	630.04
609.01	624.71
609.36	619.61
609.70	614.38
610.05	609.08
610.40	603.90
610.75	598.65
611.10	593.74
611.44	588.76
611.79	583.88
612.14	578.96
612.49	574.03
612.83	569.32
613.18	564.89
613.53	560.43
613.88	556.01
614.22	551.84
614.57	547.53
614.92	543.26
615.27	539.13
615.61	535.00
615.96	531.04
616.31	527.09
616.65	523.08
617.00	519.18
617.35	515.40
617.70	511.72
618.04	508.21
618.39	504.60
618.74	501.15
619.08	497.62
619.43	494.19
619.78	490.88
620.12	487.58
620.47	484.43
620.82	481.29
621.16	478.25
621.51	475.29
621.85	472.40
622.20	469.59
622.55	466.73
622.89	463.94
623.24	461.27
623.59	458.63
623.93	456.05
624.28	453.58
624.62	451.31
624.97	449.00
625.32	446.54
625.66	444.07
626.01	441.67
626.35	439.47
626.70	437.18
627.04	435.09
627.39	432.89
627.73	430.73
628.08	428.69
628.43	426.67
628.77	424.65
629.12	422.74
629.46	420.78
629.81	418.98
630.15	417.08
630.50	415.22
630.84	413.44
631.19	411.73
631.53	410.06
631.88	408.20
632.22	406.43
632.57	405.00
632.91	403.55
633.26	402.15
633.60	400.69
633.95	399.33
634.29	397.82
634.64	396.40
634.98	394.88
635.32	393.48
635.67	392.16
636.01	390.84
636.36	389.55
636.70	388.42
637.05	387.13
637.39	385.97
637.73	384.80
638.08	383.68
638.42	382.55
638.77	381.31
639.11	380.07
639.45	378.91
639.80	377.71
640.14	376.54
640.49	375.34
640.83	374.22
641.17	373.07
641.52	371.98
641.86	370.93
642.20	370.05
642.55	368.98
642.89	367.95
643.23	366.93
643.58	366.02
643.92	364.95
644.26	363.93
644.61	363.02
644.95	362.05
645.29	361.04
645.64	360.06
645.98	359.13
646.32	358.31
646.66	357.39
647.01	356.46
647.35	355.62
647.69	354.78
648.04	353.95
648.38	353.10
648.72	352.30
649.06	351.52
649.41	350.67
649.75	349.87
650.09	349.13
650.43	348.36
650.78	347.55
651.12	346.79
651.46	346.08
651.80	345.34
652.14	344.62
652.49	343.93
652.83	343.18
653.17	342.48
653.51	341.78
653.85	341.17
654.20	340.53
654.54	339.79
654.88	339.10
655.22	338.45
655.56	337.74
655.90	337.03
656.25	336.35
656.59	335.68
656.93	335.08
657.27	334.50
657.61	333.82
657.95	333.23
658.29	332.60
658.64	332.06
658.98	331.45
659.32	330.84
659.66	330.25
660.00	329.71
660.34	329.14
660.68	328.53
661.02	327.88
661.36	327.26
661.70	326.69
662.05	326.13
662.39	325.60
662.73	325.15
663.07	324.74
663.41	324.25
663.75	323.70
664.09	323.14
664.43	322.51
664.77	322.01
665.11	321.41
665.45	320.87
665.79	320.30
666.13	319.74
666.47	319.18
666.81	318.60
667.15	317.98
667.49	317.49
667.83	317.06
668.17	316.60
668.51	316.17
668.85	315.74
669.19	315.39
669.53	314.87
669.87	314.38
670.21	313.88
670.55	313.42
670.89	313.08
671.23	312.64
671.57	312.23
671.91	311.86
672.25	311.49
672.58	311.13
672.92	310.67
673.26	310.28
673.60	309.89
673.94	309.50
674.28	309.15
674.62	308.77
674.96	308.31
675.30	307.91
675.64	307.48
675.97	307.04
676.31	306.53
676.65	306.08
676.99	305.69
677.33	305.21
677.67	304.75
678.01	304.19
678.34	303.76
678.68	303.35
679.02	302.85
679.36	302.42
679.70	301.94
680.04	301.52
680.37	301.10
680.71	300.69
681.05	300.30
681.39	299.85
681.73	299.37
682.06	298.91
682.40	298.47
682.74	298.08
683.08	297.71
683.42	297.27
683.75	296.86
684.09	296.34
684.43	295.89
684.77	295.44
685.10	295.05
685.44	294.67
685.78	294.24
686.12	293.84
686.45	293.39
686.79	292.93
687.13	292.51
687.46	292.06
687.80	291.63
688.14	291.13
688.48	290.71
688.81	290.29
689.15	289.94
689.49	289.49
689.82	289.02
690.16	288.51
690.50	288.09
690.83	287.66
691.17	287.21
691.51	286.81
691.84	286.44
692.18	286.02
692.52	285.55
692.85	285.12
693.19	284.76
693.52	284.36
693.86	283.97
694.20	283.53
694.53	283.11
694.87	282.67
695.21	282.24
695.54	281.81
695.88	281.35
696.21	280.83
696.55	280.40
696.88	279.98
697.22	279.56
697.56	279.15
697.89	278.69
698.23	278.27
698.56	277.81
698.90	277.39
699.23	276.94
699.57	276.53
699.90	276.08
700.24	275.59
700.58	275.18
700.91	274.80
701.25	274.57
701.58	274.25
701.92	273.92
702.25	273.57
702.59	273.18
702.92	272.79
703.26	272.42
703.59	272.02
703.93	271.78
704.26	271.41
704.60	271.02
704.93	270.64
705.26	270.25
705.60	269.93
705.93	269.48
706.27	269.17
706.60	268.85
706.94	268.54
707.27	268.14
707.61	267.75
707.94	267.36
708.27	266.83
708.61	266.38
708.94	265.97
709.28	265.60
709.61	265.23
709.94	264.92
710.28	264.60
710.61	264.32
710.95	263.83
711.28	263.62
711.61	263.28
711.95	262.98
712.28	262.64
712.61	262.28
712.95	262.05
713.28	261.79
713.61	261.42
713.95	261.05
714.28	260.75
714.61	260.44
714.95	260.11
715.28	259.81
715.61	259.50
715.95	259.24
716.28	258.93
716.61	258.66
716.95	258.31
717.28	257.98
717.61	257.65
717.94	257.37
718.28	256.95
718.61	256.68
718.94	256.37
719.27	256.10
719.61	255.86
719.94	255.56
720.27	255.20
720.60	254.94
720.94	254.69
721.27	254.45
721.60	254.21
721.93	253.94
722.27	253.74
722.60	253.53
722.93	253.24
723.26	253.00
723.59	252.73
723.93	252.54
724.26	252.33
724.59	252.10
724.92	251.88
725.25	251.72
725.59	251.49
725.92	251.30
726.25	251.10
726.58	250.88
726.91	250.64
727.24	250.43
727.57	250.22
727.91	249.96
728.24	249.78
728.57	249.56
728.90	249.38
729.23	249.12
729.56	248.99
729.89	248.79
730.22	248.59
730.55	248.39
730.89	248.18
731.22	247.97
731.55	247.76
731.88	247.58
732.21	247.35
732.54	247.14
732.87	246.95
733.20	246.77
733.53	246.58
733.86	246.41
734.19	246.22
734.52	246.06
734.85	246.02
735.18	245.80
735.51	245.68
735.84	245.52
736.17	245.40
736.50	245.14
736.83	245.16
737.16	245.00
737.49	244.84
737.82	244.66
738.15	244.55
738.48	244.40
738.81	244.22
739.14	244.05
739.47	243.88
739.80	243.71
740.13	243.57
740.46	243.38
740.79	243.20
741.12	243.05
741.45	242.87
741.78	242.63
742.11	242.54
742.44	242.34
742.77	242.21
743.10	242.04
743.43	241.90
743.75	241.57
744.08	241.69
744.41	241.53
744.74	241.38
745.07	241.19
745.40	241.09
745.73	241.02
746.06	240.90
746.39	240.80
746.71	240.66
747.04	240.50
747.37	240.37
747.70	240.28
748.03	240.14
748.36	240.05
748.68	239.92
749.01	239.74
749.34	239.63
749.67	239.52
750.00	239.42
750.33	239.43
750.65	239.33
750.98	238.96
751.31	238.85
751.64	238.76
751.97	238.74
752.29	238.60
752.62	238.39
752.95	238.26
753.28	238.12
753.60	238.00
753.93	237.93
754.26	237.83
754.59	237.67
754.91	237.55
755.24	237.41
755.57	237.29
755.90	237.18
756.22	237.06
756.55	236.91
756.88	236.77
757.20	236.55
757.53	236.39
757.86	236.28
758.19	236.21
758.51	236.11
758.84	235.93
759.17	235.82
759.49	235.75
759.82	235.75
760.15	235.67
760.47	235.60
760.80	235.46
761.13	235.40
761.45	235.31
761.78	235.22
762.11	235.17
762.43	235.08
762.76	235.00
763.08	234.94
763.41	234.87
763.74	234.80
764.06	234.71
764.39	234.66
764.71	234.57
765.04	234.46
765.37	234.37
765.69	234.29
766.02	234.22
766.34	234.13
766.67	233.98
767.00	233.94
767.32	233.96
767.65	234.00
767.97	233.90
768.30	233.85
768.62	233.80
768.95	233.71
769.27	233.64
769.60	233.60
769.92	233.51
770.25	233.43
770.57	233.34
770.90	233.28
771.22	233.21
771.55	233.15
771.87	233.10
772.20	233.05
772.52	233.15
772.85	233.30
773.17	233.25
773.50	233.20
773.82	233.12
774.15	232.97
774.47	232.80
774.80	232.75
775.12	232.70
775.45	232.64
775.77	232.60
776.09	232.56
776.42	232.50
776.74	232.52
777.07	232.47
777.39	232.43
777.72	232.38
778.04	232.36
778.36	232.31
778.69	232.28
779.01	232.27
779.33	232.07
779.66	231.83
779.98	231.77
780.31	231.74
780.63	231.78
780.95	231.79
781.28	231.75
781.60	231.69
781.92	231.66
782.25	231.62
782.57	231.60
782.89	231.55
783.22	231.50
783.54	231.43
783.86	231.41
784.19	231.37
784.51	231.39
784.83	231.33
785.16	231.30
785.48	231.27
785.80	231.24
786.12	231.21
786.45	231.20
786.77	231.19
787.09	231.14
787.42	231.05
787.74	231.01
788.06	231.00
788.38	230.97
788.71	230.93
789.03	230.92
789.35	230.91
789.67	230.87
789.99	230.86
790.32	230.80
790.64	230.80
790.96	230.93
791.28	230.84
791.61	230.82
791.93	230.80
792.25	230.77
792.57	230.86
792.89	230.81
793.21	230.79
793.54	230.75
793.86	230.71
794.18	230.70
794.50	230.65
794.82	230.62
795.14	230.63
795.47	230.63
795.79	230.60
796.11	230.54
796.43	230.52
796.75	230.49
797.07	230.47
797.39	230.43
797.71	230.27
798.04	230.27
798.36	230.26
798.68	230.23
799.00	230.23
799.32	230.11
799.64	230.13
799.96	230.10
800.28	230.12
800.60	230.10
800.92	230.08
801.24	230.05
801.56	230.04
801.89	230.01
802.21	230.00
802.53	229.96
802.85	229.98
803.17	230.06
803.49	230.00
803.81	229.98
804.13	229.95
804.45	229.90
804.77	229.89
805.09	229.87
805.41	229.84
805.73	229.80
806.05	229.74
806.37	229.71
806.69	229.68
807.01	229.64
807.33	229.65
807.65	229.57
807.97	229.63
808.28	229.59
808.60	229.58
808.92	229.54
809.24	229.63
809.56	229.58
809.88	229.49
810.20	229.49
810.52	229.50
810.84	229.47
811.16	229.46
811.48	229.44
811.80	229.50
812.12	229.48
812.43	229.49
812.75	229.49
813.07	229.46
813.39	229.46
813.71	229.42
814.03	229.38
814.35	229.38
814.67	229.28
814.98	229.26
815.30	229.24
815.62	229.20
815.94	229.07
816.26	229.08
816.58	229.04
816.89	229.04
817.21	229.00
817.53	229.01
817.85	229.00
818.17	228.98
818.48	228.90
818.80	228.92
819.12	228.87
819.44	228.83
819.76	228.79
820.07	228.77
820.39	228.76
820.71	228.77
821.03	228.76
821.34	228.75
821.66	228.77
821.98	228.78
822.30	228.76
822.61	228.87
822.93	228.82
823.25	228.82
823.57	228.79
823.88	228.79
824.20	228.78
824.52	228.80
824.83	228.79
825.15	228.76
825.47	228.74
825.79	228.75
826.10	228.74
826.42	228.74
826.74	228.74
827.05	228.72
827.37	228.72
827.69	228.71
828.00	228.71
828.32	228.68
828.64	228.65
828.95	228.73
829.27	228.66
829.58	228.66
829.90	228.67
830.22	228.68
830.53	228.64
830.85	228.60
831.17	228.54
831.48	228.53
831.80	228.53
832.11	228.51
832.43	228.47
832.75	228.45
833.06	228.54
833.38	228.48
833.69	228.47
834.01	228.45
834.32	228.43
834.64	228.41
834.96	228.40
835.27	228.39
835.59	228.33
835.90	228.30
836.22	228.28
836.53	228.24
836.85	228.21
837.16	228.38
837.48	228.39
837.79	228.44
838.11	228.43
838.42	228.44
838.74	228.46
839.05	228.44
839.37	228.43
839.68	228.33
840.00	228.32
840.31	228.36
840.63	228.34
840.94	228.33
841.26	228.31
841.57	228.30
841.88	228.31
842.20	228.28
842.51	228.25
842.83	228.25
843.14	228.40
843.46	228.40
843.77	228.30
844.08	228.28
844.40	228.22
844.71	228.21
845.03	228.19
845.34	228.17
845.65	228.17
845.97	228.17
846.28	228.17
846.60	228.18
846.91	228.14
847.22	228.15
847.54	228.18
847.85	228.19
848.16	228.18
848.48	228.14
848.79	228.22
849.10	228.24
849.42	228.25
849.73	228.09
850.04	228.09
850.36	228.02
850.67	228.06
850.98	228.06
851.30	228.06
851.61	228.05
851.92	228.03
852.23	228.08
852.55	228.09
852.86	228.10
853.17	228.12
853.49	228.15
853.80	228.18
854.11	228.18
854.42	228.21
854.74	228.19
855.05	228.20
855.36	228.10
855.67	228.10
855.99	228.10
856.30	228.31
856.61	228.30
856.92	228.30
857.23	228.30
857.55	228.28
857.86	228.27
858.17	228.31
858.48	228.28
858.79	228.23
859.11	228.23
859.42	228.21
859.73	228.19
860.04	228.18
860.35	228.12
860.66	228.07
860.98	228.05
861.29	228.06
861.60	228.04
861.91	228.07
862.22	228.04
862.53	228.00
862.84	227.78
863.16	227.82
863.47	227.78
863.78	227.75
864.09	227.77
864.40	227.78
864.71	227.75
865.02	227.79
865.33	227.78
865.64	227.74
865.95	227.74
866.27	227.84
866.58	227.81
866.89	227.83
867.20	227.82
867.51	227.79
867.82	227.79
868.13	227.86
868.44	227.82
868.75	227.86
869.06	227.87
869.37	227.89
869.68	227.85
869.99	227.88
870.30	227.89
870.61	227.89
870.92	227.87
871.23	227.85
871.54	227.87
871.85	227.91
872.16	227.94
872.47	227.92
872.78	227.82
873.09	227.83
873.40	227.81
873.71	227.84
874.02	227.85
874.33	227.83
874.64	227.77
874.95	227.80
875.26	227.76
875.56	227.75
875.87	227.74
876.18	227.74
876.49	227.91
876.80	227.89
877.11	227.87
877.42	227.88
877.73	227.89
878.04	227.85
878.35	227.84
878.66	227.84
878.96	227.84
879.27	227.84
879.58	227.84
879.89	227.82
880.20	227.85
880.51	227.85
880.82	227.86
881.12	227.88
881.43	227.84
881.74	227.83
882.05	227.82
882.36	227.83
882.67	227.84
882.97	227.64
883.28	227.63
883.59	227.63
883.90	227.64
884.21	227.66
884.51	227.66
884.82	227.64
885.13	227.64
885.44	227.63
885.74	227.63
886.05	227.63
886.36	227.63
886.67	227.57
886.98	227.66
887.28	227.65
887.59	227.65
887.90	227.66
888.20	227.64
888.51	227.67
888.82	227.65
889.13	227.65
889.43	227.81
889.74	227.79
890.05	227.79
890.35	227.77
890.66	227.73
890.97	227.71
891.28	227.68
891.58	227.67
891.89	227.67
892.20	227.65
892.50	227.63
892.81	227.62
893.12	227.62
893.42	227.53
893.73	227.54
894.04	227.54
894.34	227.56
894.65	227.57
894.95	227.55
895.26	227.56
895.57	227.64
895.87	227.45
896.18	227.49
896.48	227.51
896.79	227.51
897.10	227.54
897.40	227.55
897.71	227.57
898.01	227.56
898.32	227.58
898.63	227.58
898.93	227.60
899.24	227.61
899.54	227.60
899.85	227.59
900.15	227.58
900.46	227.57
900.76	227.58
901.07	227.58
901.38	227.56
901.68	227.58
901.99	227.48
902.29	227.49
902.60	227.46
902.90	227.45
903.21	227.45
903.51	227.43
903.82	227.46
904.12	227.45
904.43	227.48
904.73	227.46
905.03	227.48
905.34	227.64
905.64	227.63
905.95	227.64
906.25	227.63
906.56	227.62
906.86	227.62
907.17	227.61
907.47	227.63
907.77	227.61
908.08	227.58
908.38	227.59
908.69	227.61
908.99	227.65
909.30	227.66
909.60	227.66
909.90	227.66
910.21	227.61
910.51	227.60
910.81	227.60
911.12	227.60
911.42	227.60
911.73	227.41
912.03	227.43
912.33	227.46
912.64	227.46
912.94	227.44
913.24	227.42
913.55	227.40
913.85	227.38
914.15	227.42
914.46	227.43
914.76	227.41
915.06	227.41
915.37	227.38
915.67	227.36
915.97	227.37
916.27	227.34
916.58	227.35
916.88	227.35
917.18	227.33
917.49	227.45
917.79	227.45
918.09	227.48
918.39	227.52
918.70	227.50
919.00	227.51
919.30	227.58
919.60	227.58
919.91	227.56
920.21	227.57
920.51	227.53
920.81	227.52
921.12	227.56
921.42	227.56
921.72	227.57
922.02	227.58
922.32	227.59
922.63	227.62
922.93	227.72
923.23	227.73
923.53	227.73
923.83	227.61
924.13	227.62
924.44	227.62
924.74	227.64
925.04	227.68
925.34	227.68
925.64	227.62
925.94	227.63
926.24	227.73
926.55	227.71
926.85	227.74
927.15	227.73
927.45	227.73
927.75	227.73
928.05	227.73
928.35	227.71
928.65	227.74
928.95	227.75
929.26	227.66
929.56	227.70
929.86	227.71
930.16	227.70
930.46	227.69
930.76	227.69
931.06	227.61
931.36	227.56
931.66	227.59
931.96	227.61
932.26	227.61
932.56	227.53
932.86	227.54
933.16	227.54
933.46	227.53
933.76	227.50
934.06	227.53
934.36	227.58
934.66	227.58
934.96	227.55
935.26	227.54
935.56	227.58
935.86	227.53
936.16	227.50
936.46	227.48
936.76	227.47
937.06	227.44
937.36	227.46
937.66	227.47
937.96	227.46
938.26	227.43
938.56	227.42
938.86	227.43
939.16	227.48
939.46	227.50
939.76	227.51
940.06	227.51
940.35	227.48
940.65	227.40
940.95	227.42
941.25	227.38
941.55	227.36
941.85	227.34
942.15	227.38
942.45	227.43
942.75	227.42
943.04	227.44
943.34	227.48
943.64	227.46
943.94	227.44
944.24	227.44
944.54	227.46
944.84	227.45
945.13	227.44
945.43	227.40
945.73	227.38
946.03	227.37
946.33	227.37
946.62	227.36
946.92	227.36
947.22	227.37
947.52	227.39
947.82	227.42
948.11	227.40
948.41	227.36
948.71	227.31
949.01	227.33
949.31	227.32
949.60	227.29
949.90	227.33
950.20	227.32
950.50	227.31
950.79	227.29
951.09	227.31
951.39	227.31
951.69	227.29
951.98	227.33
952.28	227.33
952.58	227.33
952.87	227.32
953.17	227.35
953.47	227.32
953.76	227.31
954.06	227.27
954.36	227.24
954.66	227.24
954.95	227.28
955.25	227.29
955.55	227.31
955.84	227.30
956.14	227.30
956.44	227.32
956.73	227.29
957.03	227.31
957.32	227.31
957.62	227.32
957.92	227.35
958.21	227.32
958.51	227.52
958.81	227.54
959.10	227.56
959.40	227.59
959.69	227.60
959.99	227.63
960.29	227.65
960.58	227.65
960.88	227.71
961.17	227.69
961.47	227.71
961.76	227.68
962.06	227.71
962.36	227.68
962.65	227.68
962.95	227.69
963.24	227.68
963.54	227.67
963.83	227.67
964.13	227.67
964.42	227.66
964.72	227.51
965.01	227.52
965.31	227.51
965.60	227.46
965.90	227.58
966.19	227.53
966.49	227.54
966.78	227.54
967.08	227.52
967.37	227.52
967.67	227.49
967.96	227.52
968.26	227.51
968.55	227.53
968.85	227.53
969.14	227.53
969.43	227.52
969.73	227.51
970.02	227.50
970.32	227.48
970.61	227.44
970.91	227.39
971.20	227.36
971.49	227.34
971.79	227.37
972.08	227.24
972.38	227.25
972.67	227.23
972.96	227.26
973.26	227.22
973.55	227.27
973.85	227.26
974.14	227.24
974.43	227.25
974.73	227.22
975.02	227.20
975.31	227.20
975.61	227.21
975.90	227.20
976.19	227.18
976.49	227.21
976.78	227.23
977.07	227.23
977.37	227.24
977.66	227.27
977.95	227.24
978.24	227.26
978.54	227.29
978.83	227.28
979.12	227.27
979.42	227.28
979.71	227.25
980.00	227.24
980.29	227.26
980.59	227.23
980.88	227.28
981.17	227.29
981.46	227.28
981.76	227.29
982.05	227.34
982.34	227.35
982.63	227.34
982.93	227.34
983.22	227.37
983.51	227.38
983.80	227.40
984.09	227.43
984.39	227.42
984.68	227.40
984.97	227.42
985.26	227.40
985.55	227.41
985.85	227.38
986.14	227.41
986.43	227.42
986.72	227.41
987.01	227.34
987.30	227.34
987.59	227.33
987.89	227.33
988.18	227.27
988.47	227.24
988.76	227.23
989.05	227.22
989.34	227.19
989.63	227.23
989.92	227.20
990.22	227.17
990.51	227.15
990.80	227.13
991.09	227.14
991.38	227.16
991.67	227.14
991.96	227.12
992.25	227.13
992.54	227.10
992.83	227.11
993.12	227.11
993.41	227.14
993.70	227.22
993.99	227.25
994.28	227.28
994.58	227.32
994.87	227.30
995.16	227.29
995.45	227.28
995.74	227.22
996.03	227.24
996.32	227.28
996.61	227.32
996.90	227.32
997.19	227.31
997.48	227.32
997.77	227.31
998.06	227.31
998.34	227.31
998.63	227.31
998.92	227.32
999.21	227.34
999.50	227.34
999.79	227.26
1000.08	227.26
1000.37	227.25
1000.66	227.23
1000.95	227.29
1001.24	227.32
1001.53	227.35
1001.82	227.35
1002.11	227.32
1002.40	227.32
1002.68	227.36
1002.97	227.49
1003.26	227.47
1003.55	227.43
1003.84	227.44
1004.13	227.50
1004.42	227.49
1004.71	227.49
1004.99	227.48
1005.28	227.52
1005.57	227.51
1005.86	227.50
1006.15	227.47
1006.44	227.45
1006.72	227.47
1007.01	227.43
1007.30	227.42
1007.59	227.41
1007.88	227.41
1008.17	227.41
1008.45	227.38
1008.74	227.31
1009.03	227.22
1009.32	227.23
1009.60	227.23
1009.89	227.22
1010.18	227.15
1010.47	227.14
1010.76	227.13
1011.04	227.13
1011.33	227.12
1011.62	227.14
1011.91	227.16
1012.19	227.18
1012.48	227.18
1012.77	227.17
1013.05	227.23
1013.34	227.23
1013.63	227.21
1013.92	227.23
1014.20	227.22
1014.49	227.23
1014.78	227.25
1015.06	227.19
1015.35	227.19
1015.64	227.22
1015.92	227.24
1016.21	227.26
1016.50	227.27
1016.78	227.30
1017.07	227.31
1017.36	227.28
1017.64	227.24
1017.93	227.24
1018.22	227.22
1018.50	227.22
1018.79	227.23
1019.08	227.16
1019.36	227.17
1019.65	227.16
1019.93	227.20
1020.22	227.24
1020.51	227.32
1020.79	227.29
1021.08	226.92
1021.36	226.98
1021.65	227.36
1021.94	227.00
1022.22	227.34
1022.51	226.80
1022.79	228.17
1023.08	227.57
1023.36	229.21
1023.65	226.77
>>>>>End Processed Spectral Data<<<<<
