SpectraSuite Data File
++++++++++++++++++++++++++++++++++++
Date: Tue Oct 06 15:42:26 EDT 2015
User: lab3
Dark Spectrum Present: No
Reference Spectrum Present: No
Number of Sampled Component Spectra: 1
Spectrometers: USB2E7196
Integration Time (usec): 66000 (USB2E7196)
Spectra Averaged: 1000 (USB2E7196)
Boxcar Smoothing: 10 (USB2E7196)
Correct for Electrical Dark: No (USB2E7196)
Strobe/Lamp Enabled: No (USB2E7196)
Correct for Detector Non-linearity: No (USB2E7196)
Correct for Stray Light: No (USB2E7196)
Number of Pixels in Processed Spectrum: 2048
>>>>>Begin Processed Spectral Data<<<<<
339.09	0.00
339.48	215.68
339.86	217.07
340.24	218.23
340.63	219.83
341.01	223.80
341.39	222.56
341.78	224.00
342.16	225.47
342.54	225.53
342.93	214.05
343.31	224.86
343.69	225.39
344.07	225.85
344.46	226.30
344.84	226.70
345.22	226.89
345.60	227.17
345.99	227.37
346.37	227.49
346.75	227.61
347.13	227.69
347.52	227.78
347.90	227.91
348.28	227.96
348.66	228.04
349.05	228.03
349.43	228.08
349.81	228.14
350.19	228.20
350.57	228.28
350.96	228.36
351.34	228.46
351.72	228.57
352.10	228.68
352.48	228.76
352.87	228.80
353.25	228.86
353.63	228.91
354.01	228.97
354.39	229.05
354.77	229.12
355.15	229.25
355.54	229.28
355.92	229.28
356.30	229.35
356.68	229.51
357.06	229.60
357.44	229.64
357.82	229.70
358.20	229.91
358.58	229.95
358.97	230.02
359.35	230.11
359.73	230.21
360.11	230.26
360.49	230.32
360.87	230.38
361.25	230.44
361.63	230.54
362.01	230.60
362.39	230.62
362.77	230.67
363.15	230.68
363.53	230.72
363.91	230.75
364.29	230.78
364.67	230.63
365.05	230.64
365.43	230.69
365.81	230.72
366.19	230.67
366.57	230.76
366.95	230.77
367.33	230.72
367.71	230.70
368.09	230.73
368.47	230.73
368.85	230.71
369.23	230.73
369.61	230.66
369.99	230.69
370.37	230.70
370.75	230.82
371.13	230.79
371.51	230.75
371.89	230.73
372.27	230.72
372.65	230.71
373.03	230.67
373.41	230.62
373.78	230.57
374.16	230.45
374.54	230.35
374.92	230.29
375.30	230.25
375.68	230.18
376.06	230.15
376.44	230.10
376.82	230.07
377.19	230.03
377.57	229.98
377.95	229.88
378.33	229.83
378.71	229.63
379.09	229.59
379.47	229.57
379.84	229.50
380.22	229.43
380.60	229.36
380.98	229.32
381.36	229.27
381.73	229.21
382.11	229.20
382.49	229.18
382.87	229.10
383.25	229.07
383.62	229.25
384.00	229.16
384.38	229.12
384.76	229.13
385.13	229.14
385.51	229.11
385.89	229.06
386.27	229.01
386.64	229.01
387.02	228.97
387.40	228.91
387.78	228.90
388.15	228.89
388.53	228.86
388.91	228.85
389.29	228.80
389.66	228.82
390.04	228.76
390.42	228.76
390.79	228.76
391.17	228.75
391.55	228.54
391.92	228.53
392.30	228.56
392.68	228.52
393.05	228.51
393.43	228.51
393.81	228.53
394.18	228.52
394.56	228.54
394.94	228.60
395.31	228.61
395.69	228.68
396.06	228.74
396.44	228.78
396.82	228.80
397.19	228.94
397.57	228.96
397.95	229.03
398.32	229.03
398.70	229.11
399.07	229.21
399.45	229.28
399.82	229.34
400.20	229.40
400.58	229.49
400.95	229.50
401.33	229.64
401.70	229.86
402.08	230.01
402.45	230.13
402.83	230.29
403.20	230.47
403.58	230.60
403.95	230.79
404.33	231.02
404.71	231.22
405.08	231.52
405.46	231.77
405.83	232.06
406.21	232.36
406.58	232.68
406.96	233.01
407.33	233.40
407.70	233.83
408.08	234.39
408.45	234.89
408.83	235.45
409.20	235.95
409.58	236.40
409.95	237.03
410.33	237.71
410.70	238.37
411.08	239.13
411.45	239.94
411.82	240.77
412.20	241.71
412.57	242.82
412.95	243.73
413.32	244.87
413.69	246.05
414.07	247.30
414.44	248.67
414.82	250.06
415.19	251.71
415.56	253.37
415.94	255.10
416.31	257.05
416.68	259.00
417.06	261.27
417.43	263.40
417.81	265.84
418.18	268.35
418.55	271.06
418.93	273.89
419.30	276.87
419.67	280.00
420.04	283.23
420.42	286.61
420.79	290.49
421.16	294.43
421.54	298.43
421.91	302.61
422.28	306.95
422.66	311.61
423.03	316.04
423.40	320.71
423.77	325.71
424.15	330.83
424.52	336.13
424.89	341.85
425.26	347.55
425.64	352.83
426.01	358.73
426.38	364.78
426.75	371.03
427.13	377.39
427.50	384.08
427.87	390.98
428.24	397.94
428.61	404.65
428.99	411.85
429.36	419.76
429.73	427.31
430.10	434.83
430.47	442.53
430.85	450.51
431.22	459.00
431.59	467.71
431.96	476.21
432.33	485.66
432.70	494.67
433.08	505.32
433.45	515.35
433.82	525.29
434.19	536.41
434.56	547.30
434.93	557.94
435.30	568.45
435.68	580.42
436.05	592.10
436.42	603.76
436.79	614.43
437.16	626.01
437.53	638.41
437.90	650.81
438.27	663.01
438.64	676.16
439.01	688.09
439.38	699.07
439.75	709.66
440.13	721.73
440.50	733.19
440.87	742.38
441.24	752.48
441.61	763.52
441.98	771.67
442.35	781.40
442.72	791.25
443.09	800.63
443.46	806.74
443.83	811.41
444.20	815.30
444.57	820.92
444.94	824.27
445.31	827.74
445.68	830.71
446.05	832.91
446.42	832.63
446.79	832.10
447.16	831.66
447.53	831.32
447.90	827.80
448.27	824.40
448.64	819.04
449.01	815.37
449.37	807.74
449.74	800.84
450.11	791.84
450.48	781.98
450.85	772.10
451.22	763.60
451.59	755.20
451.96	747.63
452.33	736.64
452.70	726.90
453.07	715.02
453.43	703.23
453.80	691.72
454.17	680.69
454.54	670.51
454.91	658.99
455.28	648.09
455.65	637.85
456.02	627.03
456.38	618.30
456.75	607.13
457.12	598.10
457.49	589.00
457.86	580.43
458.23	572.84
458.59	564.50
458.96	555.95
459.33	548.42
459.70	540.74
460.07	534.89
460.43	527.96
460.80	521.52
461.17	515.89
461.54	509.82
461.91	504.13
462.27	498.37
462.64	493.64
463.01	488.26
463.38	482.80
463.74	477.91
464.11	473.56
464.48	469.60
464.85	465.36
465.21	462.10
465.58	458.47
465.95	454.40
466.32	451.14
466.68	447.94
467.05	444.71
467.42	441.58
467.78	438.22
468.15	435.16
468.52	432.90
468.88	429.90
469.25	427.17
469.62	425.01
469.98	422.64
470.35	420.53
470.72	418.62
471.08	416.70
471.45	415.06
471.82	413.24
472.18	411.36
472.55	410.13
472.92	408.60
473.28	407.42
473.65	406.12
474.02	404.87
474.38	403.81
474.75	403.21
475.11	402.38
475.48	401.98
475.85	401.53
476.21	401.28
476.58	401.10
476.94	401.29
477.31	401.33
477.67	401.42
478.04	401.74
478.41	402.18
478.77	402.79
479.14	403.18
479.50	403.99
479.87	404.99
480.23	405.97
480.60	406.93
480.96	407.89
481.33	409.33
481.69	410.78
482.06	412.21
482.42	413.50
482.79	415.11
483.15	417.00
483.52	419.14
483.88	421.16
484.25	423.30
484.61	425.56
484.98	427.98
485.34	430.71
485.71	433.57
486.07	436.62
486.44	439.64
486.80	443.03
487.17	446.53
487.53	450.31
487.90	454.29
488.26	458.59
488.62	463.12
488.99	467.66
489.35	472.40
489.72	477.52
490.08	482.91
490.44	488.41
490.81	494.14
491.17	500.03
491.54	506.34
491.90	512.81
492.26	519.67
492.63	526.88
492.99	534.41
493.36	542.10
493.72	550.19
494.08	558.44
494.45	567.07
494.81	576.08
495.17	585.39
495.54	595.18
495.90	605.42
496.26	615.82
496.63	626.49
496.99	637.60
497.35	649.20
497.72	661.06
498.08	673.28
498.44	685.76
498.80	698.94
499.17	712.48
499.53	726.40
499.89	740.78
500.26	755.34
500.62	770.22
500.98	785.93
501.34	801.66
501.71	818.23
502.07	835.07
502.43	852.33
502.79	869.79
503.16	887.76
503.52	905.88
503.88	924.46
504.24	943.47
504.60	962.74
504.97	982.55
505.33	1002.81
505.69	1024.10
506.05	1045.57
506.41	1066.89
506.78	1088.37
507.14	1110.51
507.50	1133.00
507.86	1155.87
508.22	1178.92
508.59	1201.81
508.95	1225.76
509.31	1250.15
509.67	1275.10
510.03	1300.00
510.39	1324.82
510.75	1349.69
511.12	1374.96
511.48	1400.23
511.84	1425.51
512.20	1451.07
512.56	1477.59
512.92	1503.95
513.28	1529.68
513.64	1555.79
514.00	1582.20
514.37	1608.84
514.73	1635.44
515.09	1661.35
515.45	1687.58
515.81	1713.89
516.17	1739.89
516.53	1765.24
516.89	1790.51
517.25	1816.02
517.61	1841.29
517.97	1867.09
518.33	1892.20
518.69	1917.12
519.05	1942.50
519.41	1967.97
519.77	1993.28
520.13	2017.28
520.49	2041.41
520.85	2065.82
521.21	2089.64
521.57	2113.74
521.93	2136.83
522.29	2160.46
522.65	2183.92
523.01	2207.08
523.37	2229.56
523.73	2252.77
524.09	2275.61
524.45	2297.93
524.81	2319.62
525.17	2341.02
525.53	2361.89
525.89	2383.04
526.25	2403.79
526.61	2423.05
526.97	2442.29
527.33	2461.38
527.68	2480.04
528.04	2498.22
528.40	2515.07
528.76	2532.23
529.12	2549.01
529.48	2566.10
529.84	2580.65
530.20	2595.66
530.56	2609.69
530.91	2623.94
531.27	2637.60
531.63	2650.32
531.99	2662.81
532.35	2674.82
532.71	2686.44
533.07	2698.34
533.42	2708.32
533.78	2718.68
534.14	2729.84
534.50	2739.88
534.86	2750.39
535.21	2758.91
535.57	2767.30
535.93	2775.66
536.29	2782.23
536.65	2788.47
537.00	2793.28
537.36	2799.38
537.72	2804.45
538.08	2808.91
538.44	2812.42
538.79	2815.65
539.15	2817.56
539.51	2818.96
539.87	2819.32
540.22	2818.13
540.58	2817.07
540.94	2817.11
541.29	2815.78
541.65	2813.06
542.01	2809.96
542.37	2805.46
542.72	2802.38
543.08	2797.79
543.44	2793.30
543.79	2788.22
544.15	2782.59
544.51	2777.34
544.87	2770.88
545.22	2763.61
545.58	2756.43
545.94	2749.37
546.29	2740.79
546.65	2732.52
547.01	2724.19
547.36	2716.14
547.72	2708.45
548.07	2699.01
548.43	2688.55
548.79	2677.80
549.14	2667.56
549.50	2657.39
549.86	2646.36
550.21	2633.78
550.57	2622.21
550.92	2609.04
551.28	2596.48
551.64	2584.03
551.99	2571.29
552.35	2558.21
552.70	2545.00
553.06	2532.20
553.41	2518.93
553.77	2505.44
554.13	2492.12
554.48	2477.76
554.84	2462.93
555.19	2448.50
555.55	2433.94
555.90	2419.73
556.26	2405.98
556.61	2391.08
556.97	2375.28
557.32	2359.91
557.68	2344.89
558.03	2329.54
558.39	2315.09
558.74	2301.17
559.10	2285.55
559.45	2270.37
559.81	2255.92
560.16	2241.11
560.52	2226.16
560.87	2211.26
561.23	2196.14
561.58	2181.30
561.94	2166.13
562.29	2150.49
562.64	2135.03
563.00	2119.78
563.35	2104.64
563.71	2089.16
564.06	2073.86
564.42	2059.11
564.77	2044.34
565.12	2029.42
565.48	2014.41
565.83	1999.68
566.19	1984.95
566.54	1970.50
566.89	1955.36
567.25	1939.95
567.60	1925.51
567.96	1910.22
568.31	1894.02
568.66	1878.73
569.02	1864.01
569.37	1849.79
569.72	1836.14
570.08	1822.05
570.43	1807.47
570.78	1792.70
571.14	1777.71
571.49	1762.84
571.84	1748.30
572.20	1732.79
572.55	1718.00
572.90	1703.19
573.26	1688.30
573.61	1672.79
573.96	1657.87
574.31	1642.82
574.67	1627.85
575.02	1612.44
575.37	1597.20
575.72	1582.57
576.08	1567.83
576.43	1552.56
576.78	1537.34
577.13	1522.31
577.49	1507.54
577.84	1493.15
578.19	1478.35
578.54	1463.69
578.90	1449.03
579.25	1434.26
579.60	1420.44
579.95	1406.43
580.30	1392.38
580.66	1378.07
581.01	1363.93
581.36	1349.92
581.71	1336.61
582.06	1323.20
582.42	1309.72
582.77	1296.68
583.12	1283.87
583.47	1270.95
583.82	1258.25
584.17	1245.23
584.53	1232.26
584.88	1219.52
585.23	1206.67
585.58	1194.22
585.93	1181.76
586.28	1170.11
586.63	1158.31
586.98	1146.30
587.34	1134.58
587.69	1122.70
588.04	1111.28
588.39	1100.03
588.74	1088.40
589.09	1077.00
589.44	1065.31
589.79	1054.17
590.14	1043.08
590.49	1032.06
590.84	1021.24
591.19	1010.63
591.54	1000.16
591.89	989.35
592.25	978.89
592.60	968.34
592.95	957.93
593.30	947.80
593.65	937.45
594.00	927.37
594.35	918.11
594.70	908.20
595.05	898.93
595.40	889.39
595.75	879.75
596.10	870.72
596.45	861.62
596.80	852.86
597.15	844.15
597.50	835.48
597.85	826.97
598.19	818.46
598.54	810.01
598.89	801.98
599.24	794.31
599.59	786.52
599.94	779.28
600.29	772.03
600.64	764.66
600.99	757.18
601.34	749.92
601.69	742.19
602.04	735.27
602.39	728.25
602.74	721.42
603.08	714.75
603.43	708.04
603.78	701.30
604.13	694.69
604.48	688.12
604.83	681.70
605.18	675.40
605.53	669.26
605.87	663.08
606.22	656.99
606.57	650.84
606.92	644.59
607.27	638.40
607.62	632.45
607.96	626.73
608.31	621.38
608.66	615.98
609.01	610.80
609.36	605.63
609.70	600.37
610.05	595.18
610.40	590.14
610.75	585.10
611.10	580.25
611.44	575.40
611.79	570.66
612.14	565.86
612.49	561.13
612.83	556.61
613.18	552.13
613.53	547.69
613.88	543.43
614.22	539.45
614.57	535.36
614.92	531.34
615.27	527.47
615.61	523.53
615.96	519.61
616.31	515.69
616.65	511.92
617.00	508.26
617.35	504.62
617.70	500.98
618.04	497.46
618.39	494.04
618.74	490.83
619.08	487.60
619.43	484.48
619.78	481.30
620.12	478.14
620.47	475.19
620.82	472.25
621.16	469.31
621.51	466.45
621.85	463.62
622.20	460.86
622.55	458.04
622.89	455.28
623.24	452.68
623.59	450.13
623.93	447.62
624.28	445.27
624.62	443.12
624.97	440.97
625.32	438.73
625.66	436.44
626.01	434.15
626.35	431.97
626.70	429.72
627.04	427.66
627.39	425.59
627.73	423.55
628.08	421.63
628.43	419.70
628.77	417.67
629.12	415.79
629.46	413.97
629.81	412.27
630.15	410.50
630.50	408.74
630.84	407.02
631.19	405.36
631.53	403.75
631.88	401.96
632.22	400.26
632.57	398.84
632.91	397.40
633.26	396.01
633.60	394.64
633.95	393.35
634.29	391.95
634.64	390.58
634.98	389.09
635.32	387.75
635.67	386.55
636.01	385.34
636.36	384.17
636.70	383.09
637.05	381.86
637.39	380.76
637.73	379.66
638.08	378.64
638.42	377.64
638.77	376.50
639.11	375.36
639.45	374.24
639.80	373.05
640.14	371.95
640.49	370.85
640.83	369.74
641.17	368.65
641.52	367.60
641.86	366.59
642.20	365.75
642.55	364.72
642.89	363.68
643.23	362.73
643.58	361.87
643.92	360.86
644.26	359.93
644.61	359.04
644.95	358.10
645.29	357.08
645.64	356.05
645.98	355.13
646.32	354.32
646.66	353.46
647.01	352.62
647.35	351.87
647.69	351.07
648.04	350.35
648.38	349.58
648.72	348.85
649.06	348.09
649.41	347.26
649.75	346.51
650.09	345.81
650.43	345.06
650.78	344.30
651.12	343.56
651.46	342.84
651.80	342.13
652.14	341.48
652.49	340.88
652.83	340.22
653.17	339.51
653.51	338.84
653.85	338.28
654.20	337.66
654.54	336.93
654.88	336.25
655.22	335.61
655.56	334.93
655.90	334.28
656.25	333.65
656.59	333.04
656.93	332.48
657.27	331.93
657.61	331.33
657.95	330.77
658.29	330.20
658.64	329.63
658.98	329.04
659.32	328.45
659.66	327.90
660.00	327.38
660.34	326.87
660.68	326.30
661.02	325.64
661.36	325.06
661.70	324.52
662.05	324.00
662.39	323.47
662.73	323.02
663.07	322.61
663.41	322.14
663.75	321.62
664.09	321.10
664.43	320.48
664.77	319.96
665.11	319.35
665.45	318.83
665.79	318.34
666.13	317.79
666.47	317.25
666.81	316.68
667.15	316.07
667.49	315.60
667.83	315.18
668.17	314.75
668.51	314.31
668.85	313.89
669.19	313.51
669.53	312.97
669.87	312.42
670.21	311.87
670.55	311.36
670.89	310.97
671.23	310.53
671.57	310.15
671.91	309.78
672.25	309.46
672.58	309.13
672.92	308.68
673.26	308.34
673.60	307.96
673.94	307.58
674.28	307.24
674.62	306.85
674.96	306.39
675.30	305.98
675.64	305.54
675.97	305.08
676.31	304.61
676.65	304.19
676.99	303.87
677.33	303.43
677.67	303.02
678.01	302.51
678.34	302.09
678.68	301.68
679.02	301.23
679.36	300.77
679.70	300.28
680.04	299.90
680.37	299.49
680.71	299.11
681.05	298.74
681.39	298.31
681.73	297.84
682.06	297.41
682.40	297.00
682.74	296.64
683.08	296.34
683.42	295.93
683.75	295.57
684.09	295.07
684.43	294.67
684.77	294.25
685.10	293.87
685.44	293.47
685.78	293.05
686.12	292.64
686.45	292.24
686.79	291.81
687.13	291.39
687.46	290.93
687.80	290.51
688.14	290.01
688.48	289.59
688.81	289.17
689.15	288.82
689.49	288.39
689.82	287.95
690.16	287.40
690.50	286.95
690.83	286.52
691.17	286.08
691.51	285.67
691.84	285.28
692.18	284.85
692.52	284.40
692.85	283.96
693.19	283.60
693.52	283.16
693.86	282.72
694.20	282.29
694.53	281.89
694.87	281.42
695.21	281.02
695.54	280.59
695.88	280.15
696.21	279.65
696.55	279.21
696.88	278.77
697.22	278.35
697.56	277.96
697.89	277.51
698.23	277.12
698.56	276.68
698.90	276.27
699.23	275.83
699.57	275.44
699.90	275.02
700.24	274.56
700.58	274.19
700.91	273.85
701.25	273.62
701.58	273.29
701.92	272.97
702.25	272.60
702.59	272.21
702.92	271.85
703.26	271.48
703.59	271.11
703.93	270.88
704.26	270.53
704.60	270.15
704.93	269.78
705.26	269.39
705.60	269.05
705.93	268.66
706.27	268.37
706.60	268.06
706.94	267.77
707.27	267.38
707.61	267.02
707.94	266.62
708.27	266.10
708.61	265.67
708.94	265.26
709.28	264.90
709.61	264.55
709.94	264.22
710.28	263.89
710.61	263.57
710.95	263.09
711.28	262.87
711.61	262.53
711.95	262.24
712.28	261.91
712.61	261.57
712.95	261.33
713.28	261.07
713.61	260.70
713.95	260.33
714.28	260.03
714.61	259.70
714.95	259.40
715.28	259.09
715.61	258.82
715.95	258.54
716.28	258.23
716.61	257.97
716.95	257.66
717.28	257.38
717.61	257.08
717.94	256.82
718.28	256.42
718.61	256.13
718.94	255.82
719.27	255.56
719.61	255.32
719.94	255.02
720.27	254.66
720.60	254.41
720.94	254.15
721.27	253.91
721.60	253.68
721.93	253.42
722.27	253.22
722.60	252.97
722.93	252.72
723.26	252.50
723.59	252.23
723.93	252.02
724.26	251.81
724.59	251.57
724.92	251.35
725.25	251.19
725.59	250.97
725.92	250.78
726.25	250.56
726.58	250.32
726.91	250.09
727.24	249.88
727.57	249.66
727.91	249.43
728.24	249.24
728.57	249.02
728.90	248.83
729.23	248.58
729.56	248.46
729.89	248.26
730.22	248.05
730.55	247.84
730.89	247.65
731.22	247.44
731.55	247.24
731.88	247.06
732.21	246.84
732.54	246.66
732.87	246.48
733.20	246.30
733.53	246.13
733.86	245.98
734.19	245.79
734.52	245.65
734.85	245.62
735.18	245.42
735.51	245.32
735.84	245.16
736.17	245.05
736.50	244.78
736.83	244.83
737.16	244.68
737.49	244.53
737.82	244.37
738.15	244.23
738.48	244.08
738.81	243.91
739.14	243.73
739.47	243.56
739.80	243.41
740.13	243.26
740.46	243.10
740.79	242.92
741.12	242.77
741.45	242.59
741.78	242.34
742.11	242.24
742.44	242.04
742.77	241.91
743.10	241.73
743.43	241.60
743.75	241.27
744.08	241.39
744.41	241.23
744.74	241.08
745.07	240.90
745.40	240.81
745.73	240.75
746.06	240.65
746.39	240.54
746.71	240.40
747.04	240.26
747.37	240.12
747.70	240.02
748.03	239.91
748.36	239.81
748.68	239.67
749.01	239.51
749.34	239.40
749.67	239.29
750.00	239.21
750.33	239.22
750.65	239.12
750.98	238.75
751.31	238.66
751.64	238.58
751.97	238.58
752.29	238.45
752.62	238.26
752.95	238.12
753.28	237.99
753.60	237.88
753.93	237.81
754.26	237.71
754.59	237.56
754.91	237.43
755.24	237.32
755.57	237.23
755.90	237.12
756.22	237.00
756.55	236.86
756.88	236.70
757.20	236.49
757.53	236.34
757.86	236.24
758.19	236.15
758.51	236.04
758.84	235.86
759.17	235.74
759.49	235.67
759.82	235.66
760.15	235.59
760.47	235.49
760.80	235.35
761.13	235.29
761.45	235.21
761.78	235.14
762.11	235.06
762.43	234.95
762.76	234.87
763.08	234.81
763.41	234.75
763.74	234.69
764.06	234.61
764.39	234.54
764.71	234.45
765.04	234.35
765.37	234.25
765.69	234.17
766.02	234.09
766.34	234.00
766.67	233.87
767.00	233.83
767.32	233.86
767.65	233.92
767.97	233.83
768.30	233.77
768.62	233.70
768.95	233.61
769.27	233.54
769.60	233.50
769.92	233.41
770.25	233.32
770.57	233.24
770.90	233.18
771.22	233.11
771.55	233.08
771.87	233.03
772.20	232.98
772.52	233.08
772.85	233.25
773.17	233.21
773.50	233.14
773.82	233.06
774.15	232.93
774.47	232.75
774.80	232.69
775.12	232.64
775.45	232.59
775.77	232.56
776.09	232.52
776.42	232.47
776.74	232.47
777.07	232.42
777.39	232.39
777.72	232.33
778.04	232.31
778.36	232.25
778.69	232.21
779.01	232.20
779.33	231.99
779.66	231.75
779.98	231.69
780.31	231.66
780.63	231.69
780.95	231.68
781.28	231.64
781.60	231.59
781.92	231.55
782.25	231.53
782.57	231.48
782.89	231.44
783.22	231.39
783.54	231.33
783.86	231.31
784.19	231.27
784.51	231.29
784.83	231.24
785.16	231.22
785.48	231.18
785.80	231.14
786.12	231.13
786.45	231.09
786.77	231.07
787.09	231.03
787.42	230.93
787.74	230.91
788.06	230.90
788.38	230.88
788.71	230.83
789.03	230.81
789.35	230.81
789.67	230.77
789.99	230.76
790.32	230.73
790.64	230.72
790.96	230.86
791.28	230.77
791.61	230.75
791.93	230.74
792.25	230.70
792.57	230.80
792.89	230.75
793.21	230.74
793.54	230.71
793.86	230.68
794.18	230.67
794.50	230.62
794.82	230.59
795.14	230.59
795.47	230.60
795.79	230.58
796.11	230.52
796.43	230.49
796.75	230.46
797.07	230.44
797.39	230.40
797.71	230.23
798.04	230.22
798.36	230.19
798.68	230.16
799.00	230.15
799.32	230.04
799.64	230.04
799.96	230.02
800.28	230.03
800.60	230.00
800.92	229.99
801.24	229.96
801.56	229.95
801.89	229.91
802.21	229.90
802.53	229.86
802.85	229.89
803.17	229.95
803.49	229.91
803.81	229.88
804.13	229.85
804.45	229.81
804.77	229.81
805.09	229.80
805.41	229.79
805.73	229.74
806.05	229.68
806.37	229.65
806.69	229.61
807.01	229.58
807.33	229.57
807.65	229.49
807.97	229.56
808.28	229.52
808.60	229.51
808.92	229.47
809.24	229.55
809.56	229.48
809.88	229.42
810.20	229.42
810.52	229.44
810.84	229.41
811.16	229.39
811.48	229.36
811.80	229.41
812.12	229.38
812.43	229.40
812.75	229.39
813.07	229.37
813.39	229.37
813.71	229.33
814.03	229.31
814.35	229.32
814.67	229.22
814.98	229.21
815.30	229.19
815.62	229.16
815.94	229.03
816.26	229.05
816.58	228.99
816.89	228.99
817.21	228.93
817.53	228.93
817.85	228.93
818.17	228.92
818.48	228.84
818.80	228.86
819.12	228.82
819.44	228.79
819.76	228.75
820.07	228.75
820.39	228.73
820.71	228.73
821.03	228.71
821.34	228.70
821.66	228.70
821.98	228.72
822.30	228.70
822.61	228.81
822.93	228.77
823.25	228.77
823.57	228.74
823.88	228.75
824.20	228.74
824.52	228.76
824.83	228.74
825.15	228.72
825.47	228.70
825.79	228.71
826.10	228.69
826.42	228.69
826.74	228.69
827.05	228.68
827.37	228.68
827.69	228.67
828.00	228.66
828.32	228.65
828.64	228.61
828.95	228.70
829.27	228.64
829.58	228.62
829.90	228.65
830.22	228.66
830.53	228.63
830.85	228.60
831.17	228.54
831.48	228.53
831.80	228.53
832.11	228.52
832.43	228.48
832.75	228.49
833.06	228.59
833.38	228.54
833.69	228.53
834.01	228.53
834.32	228.51
834.64	228.50
834.96	228.50
835.27	228.50
835.59	228.42
835.90	228.39
836.22	228.39
836.53	228.35
836.85	228.32
837.16	228.49
837.48	228.50
837.79	228.56
838.11	228.56
838.42	228.56
838.74	228.57
839.05	228.56
839.37	228.53
839.68	228.41
840.00	228.41
840.31	228.43
840.63	228.40
840.94	228.38
841.26	228.36
841.57	228.34
841.88	228.36
842.20	228.34
842.51	228.31
842.83	228.30
843.14	228.46
843.46	228.45
843.77	228.34
844.08	228.31
844.40	228.25
844.71	228.24
845.03	228.21
845.34	228.18
845.65	228.18
845.97	228.18
846.28	228.19
846.60	228.19
846.91	228.16
847.22	228.16
847.54	228.21
847.85	228.21
848.16	228.19
848.48	228.15
848.79	228.20
849.10	228.22
849.42	228.24
849.73	228.06
850.04	228.05
850.36	227.99
850.67	228.02
850.98	228.03
851.30	228.04
851.61	228.04
851.92	228.04
852.23	228.09
852.55	228.09
852.86	228.08
853.17	228.10
853.49	228.12
853.80	228.16
854.11	228.15
854.42	228.17
854.74	228.16
855.05	228.16
855.36	228.08
855.67	228.07
855.99	228.06
856.30	228.27
856.61	228.26
856.92	228.28
857.23	228.28
857.55	228.26
857.86	228.26
858.17	228.28
858.48	228.25
858.79	228.21
859.11	228.24
859.42	228.23
859.73	228.20
860.04	228.19
860.35	228.14
860.66	228.08
860.98	228.07
861.29	228.09
861.60	228.09
861.91	228.12
862.22	228.09
862.53	228.07
862.84	227.87
863.16	227.89
863.47	227.85
863.78	227.82
864.09	227.84
864.40	227.84
864.71	227.83
865.02	227.87
865.33	227.85
865.64	227.81
865.95	227.81
866.27	227.92
866.58	227.90
866.89	227.93
867.20	227.92
867.51	227.89
867.82	227.87
868.13	227.93
868.44	227.89
868.75	227.93
869.06	227.94
869.37	227.96
869.68	227.91
869.99	227.95
870.30	227.97
870.61	227.97
870.92	227.95
871.23	227.93
871.54	227.95
871.85	227.98
872.16	228.00
872.47	227.98
872.78	227.88
873.09	227.90
873.40	227.87
873.71	227.90
874.02	227.91
874.33	227.90
874.64	227.86
874.95	227.89
875.26	227.86
875.56	227.85
875.87	227.83
876.18	227.82
876.49	227.99
876.80	227.97
877.11	227.93
877.42	227.94
877.73	227.95
878.04	227.92
878.35	227.91
878.66	227.91
878.96	227.92
879.27	227.92
879.58	227.91
879.89	227.90
880.20	227.96
880.51	227.96
880.82	227.97
881.12	227.97
881.43	227.93
881.74	227.90
882.05	227.89
882.36	227.90
882.67	227.92
882.97	227.73
883.28	227.72
883.59	227.72
883.90	227.73
884.21	227.75
884.51	227.74
884.82	227.71
885.13	227.72
885.44	227.71
885.74	227.70
886.05	227.69
886.36	227.70
886.67	227.64
886.98	227.73
887.28	227.74
887.59	227.73
887.90	227.75
888.20	227.76
888.51	227.80
888.82	227.76
889.13	227.76
889.43	227.92
889.74	227.91
890.05	227.91
890.35	227.89
890.66	227.85
890.97	227.83
891.28	227.82
891.58	227.81
891.89	227.81
892.20	227.78
892.50	227.76
892.81	227.74
893.12	227.74
893.42	227.64
893.73	227.64
894.04	227.63
894.34	227.64
894.65	227.64
894.95	227.62
895.26	227.64
895.57	227.72
895.87	227.55
896.18	227.59
896.48	227.61
896.79	227.61
897.10	227.64
897.40	227.66
897.71	227.67
898.01	227.66
898.32	227.68
898.63	227.70
898.93	227.72
899.24	227.73
899.54	227.73
899.85	227.72
900.15	227.71
900.46	227.72
900.76	227.73
901.07	227.72
901.38	227.71
901.68	227.73
901.99	227.63
902.29	227.64
902.60	227.62
902.90	227.59
903.21	227.60
903.51	227.57
903.82	227.61
904.12	227.62
904.43	227.63
904.73	227.61
905.03	227.61
905.34	227.78
905.64	227.76
905.95	227.77
906.25	227.77
906.56	227.78
906.86	227.77
907.17	227.75
907.47	227.77
907.77	227.75
908.08	227.71
908.38	227.72
908.69	227.74
908.99	227.76
909.30	227.79
909.60	227.79
909.90	227.79
910.21	227.73
910.51	227.70
910.81	227.70
911.12	227.71
911.42	227.70
911.73	227.52
912.03	227.53
912.33	227.56
912.64	227.53
912.94	227.51
913.24	227.48
913.55	227.47
913.85	227.46
914.15	227.49
914.46	227.51
914.76	227.49
915.06	227.47
915.37	227.43
915.67	227.40
915.97	227.39
916.27	227.38
916.58	227.39
916.88	227.39
917.18	227.37
917.49	227.49
917.79	227.49
918.09	227.51
918.39	227.54
918.70	227.53
919.00	227.55
919.30	227.62
919.60	227.62
919.91	227.59
920.21	227.60
920.51	227.56
920.81	227.55
921.12	227.58
921.42	227.58
921.72	227.60
922.02	227.61
922.32	227.64
922.63	227.64
922.93	227.73
923.23	227.73
923.53	227.72
923.83	227.59
924.13	227.61
924.44	227.60
924.74	227.64
925.04	227.67
925.34	227.67
925.64	227.59
925.94	227.59
926.24	227.70
926.55	227.68
926.85	227.72
927.15	227.72
927.45	227.72
927.75	227.71
928.05	227.71
928.35	227.69
928.65	227.73
928.95	227.74
929.26	227.66
929.56	227.70
929.86	227.72
930.16	227.70
930.46	227.68
930.76	227.69
931.06	227.61
931.36	227.55
931.66	227.58
931.96	227.60
932.26	227.62
932.56	227.53
932.86	227.54
933.16	227.53
933.46	227.51
933.76	227.48
934.06	227.50
934.36	227.56
934.66	227.56
934.96	227.53
935.26	227.53
935.56	227.55
935.86	227.50
936.16	227.48
936.46	227.48
936.76	227.47
937.06	227.44
937.36	227.45
937.66	227.46
937.96	227.45
938.26	227.42
938.56	227.40
938.86	227.41
939.16	227.44
939.46	227.46
939.76	227.48
940.06	227.49
940.35	227.46
940.65	227.37
940.95	227.39
941.25	227.35
941.55	227.33
941.85	227.32
942.15	227.36
942.45	227.41
942.75	227.41
943.04	227.42
943.34	227.47
943.64	227.45
943.94	227.43
944.24	227.42
944.54	227.44
944.84	227.44
945.13	227.41
945.43	227.38
945.73	227.37
946.03	227.36
946.33	227.34
946.62	227.33
946.92	227.32
947.22	227.33
947.52	227.35
947.82	227.37
948.11	227.35
948.41	227.31
948.71	227.25
949.01	227.27
949.31	227.26
949.60	227.24
949.90	227.27
950.20	227.26
950.50	227.26
950.79	227.26
951.09	227.29
951.39	227.29
951.69	227.28
951.98	227.33
952.28	227.32
952.58	227.33
952.87	227.34
953.17	227.36
953.47	227.34
953.76	227.34
954.06	227.31
954.36	227.29
954.66	227.29
954.95	227.35
955.25	227.36
955.55	227.36
955.84	227.33
956.14	227.34
956.44	227.35
956.73	227.32
957.03	227.33
957.32	227.32
957.62	227.31
957.92	227.34
958.21	227.31
958.51	227.52
958.81	227.53
959.10	227.54
959.40	227.59
959.69	227.60
959.99	227.62
960.29	227.62
960.58	227.62
960.88	227.69
961.17	227.66
961.47	227.68
961.76	227.66
962.06	227.70
962.36	227.67
962.65	227.68
962.95	227.70
963.24	227.68
963.54	227.69
963.83	227.71
964.13	227.70
964.42	227.69
964.72	227.54
965.01	227.55
965.31	227.54
965.60	227.50
965.90	227.60
966.19	227.57
966.49	227.58
966.78	227.58
967.08	227.56
967.37	227.56
967.67	227.53
967.96	227.55
968.26	227.54
968.55	227.57
968.85	227.57
969.14	227.57
969.43	227.56
969.73	227.54
970.02	227.53
970.32	227.52
970.61	227.49
970.91	227.43
971.20	227.41
971.49	227.39
971.79	227.42
972.08	227.29
972.38	227.31
972.67	227.30
972.96	227.32
973.26	227.28
973.55	227.32
973.85	227.32
974.14	227.30
974.43	227.32
974.73	227.29
975.02	227.26
975.31	227.26
975.61	227.26
975.90	227.25
976.19	227.23
976.49	227.25
976.78	227.26
977.07	227.25
977.37	227.25
977.66	227.27
977.95	227.24
978.24	227.25
978.54	227.29
978.83	227.27
979.12	227.26
979.42	227.26
979.71	227.23
980.00	227.22
980.29	227.23
980.59	227.20
980.88	227.24
981.17	227.24
981.46	227.24
981.76	227.24
982.05	227.30
982.34	227.31
982.63	227.31
982.93	227.32
983.22	227.36
983.51	227.39
983.80	227.41
984.09	227.43
984.39	227.41
984.68	227.39
984.97	227.41
985.26	227.40
985.55	227.42
985.85	227.38
986.14	227.41
986.43	227.44
986.72	227.44
987.01	227.37
987.30	227.39
987.59	227.37
987.89	227.38
988.18	227.32
988.47	227.30
988.76	227.28
989.05	227.26
989.34	227.24
989.63	227.27
989.92	227.24
990.22	227.21
990.51	227.21
990.80	227.20
991.09	227.21
991.38	227.23
991.67	227.21
991.96	227.20
992.25	227.20
992.54	227.17
992.83	227.16
993.12	227.17
993.41	227.19
993.70	227.26
993.99	227.28
994.28	227.32
994.58	227.35
994.87	227.34
995.16	227.34
995.45	227.33
995.74	227.27
996.03	227.30
996.32	227.34
996.61	227.37
996.90	227.36
997.19	227.34
997.48	227.35
997.77	227.34
998.06	227.36
998.34	227.34
998.63	227.34
998.92	227.34
999.21	227.38
999.50	227.38
999.79	227.32
1000.08	227.31
1000.37	227.30
1000.66	227.27
1000.95	227.33
1001.24	227.34
1001.53	227.36
1001.82	227.37
1002.11	227.32
1002.40	227.33
1002.68	227.36
1002.97	227.50
1003.26	227.49
1003.55	227.45
1003.84	227.46
1004.13	227.51
1004.42	227.50
1004.71	227.50
1004.99	227.50
1005.28	227.53
1005.57	227.51
1005.86	227.49
1006.15	227.48
1006.44	227.46
1006.72	227.49
1007.01	227.45
1007.30	227.44
1007.59	227.42
1007.88	227.42
1008.17	227.44
1008.45	227.40
1008.74	227.33
1009.03	227.23
1009.32	227.23
1009.60	227.23
1009.89	227.22
1010.18	227.15
1010.47	227.15
1010.76	227.14
1011.04	227.14
1011.33	227.14
1011.62	227.15
1011.91	227.17
1012.19	227.17
1012.48	227.18
1012.77	227.18
1013.05	227.23
1013.34	227.24
1013.63	227.23
1013.92	227.24
1014.20	227.23
1014.49	227.24
1014.78	227.24
1015.06	227.19
1015.35	227.20
1015.64	227.23
1015.92	227.26
1016.21	227.27
1016.50	227.27
1016.78	227.30
1017.07	227.31
1017.36	227.27
1017.64	227.24
1017.93	227.26
1018.22	227.24
1018.50	227.24
1018.79	227.23
1019.08	227.17
1019.36	227.17
1019.65	227.14
1019.93	227.18
1020.22	227.22
1020.51	227.30
1020.79	227.28
1021.08	227.05
1021.36	227.01
1021.65	227.20
1021.94	227.14
1022.22	227.23
1022.51	226.69
1022.79	227.89
1023.08	227.53
1023.36	229.19
1023.65	226.67
>>>>>End Processed Spectral Data<<<<<
