SpectraSuite Data File
++++++++++++++++++++++++++++++++++++
Date: Wed Oct 07 02:52:37 EDT 2015
User: lab3
Dark Spectrum Present: No
Reference Spectrum Present: No
Number of Sampled Component Spectra: 1
Spectrometers: USB2E7196
Integration Time (usec): 66000 (USB2E7196)
Spectra Averaged: 10000 (USB2E7196)
Boxcar Smoothing: 10 (USB2E7196)
Correct for Electrical Dark: No (USB2E7196)
Strobe/Lamp Enabled: No (USB2E7196)
Correct for Detector Non-linearity: No (USB2E7196)
Correct for Stray Light: No (USB2E7196)
Number of Pixels in Processed Spectrum: 2048
>>>>>Begin Processed Spectral Data<<<<<
339.09	0.00
339.48	212.24
339.86	213.80
340.24	215.12
340.63	216.56
341.01	220.78
341.39	219.25
341.78	220.76
342.16	222.14
342.54	222.33
342.93	210.96
343.31	221.62
343.69	222.16
344.07	222.62
344.46	223.07
344.84	223.48
345.22	223.67
345.60	223.96
345.99	224.17
346.37	224.31
346.75	224.44
347.13	224.53
347.52	224.62
347.90	224.75
348.28	224.80
348.66	224.89
349.05	224.88
349.43	224.95
349.81	225.03
350.19	225.10
350.57	225.18
350.96	225.29
351.34	225.40
351.72	225.51
352.10	225.63
352.48	225.70
352.87	225.75
353.25	225.82
353.63	225.87
354.01	225.93
354.39	226.01
354.77	226.09
355.15	226.21
355.54	226.25
355.92	226.25
356.30	226.33
356.68	226.51
357.06	226.60
357.44	226.64
357.82	226.69
358.20	226.91
358.58	226.96
358.97	227.03
359.35	227.13
359.73	227.22
360.11	227.28
360.49	227.34
360.87	227.39
361.25	227.46
361.63	227.58
362.01	227.63
362.39	227.66
362.77	227.71
363.15	227.73
363.53	227.77
363.91	227.81
364.29	227.84
364.67	227.68
365.05	227.70
365.43	227.75
365.81	227.79
366.19	227.73
366.57	227.82
366.95	227.82
367.33	227.78
367.71	227.77
368.09	227.81
368.47	227.80
368.85	227.79
369.23	227.81
369.61	227.73
369.99	227.77
370.37	227.78
370.75	227.90
371.13	227.87
371.51	227.82
371.89	227.81
372.27	227.79
372.65	227.78
373.03	227.73
373.41	227.69
373.78	227.63
374.16	227.50
374.54	227.40
374.92	227.34
375.30	227.31
375.68	227.23
376.06	227.19
376.44	227.13
376.82	227.10
377.19	227.05
377.57	227.00
377.95	226.89
378.33	226.83
378.71	226.61
379.09	226.57
379.47	226.55
379.84	226.49
380.22	226.42
380.60	226.34
380.98	226.30
381.36	226.25
381.73	226.18
382.11	226.18
382.49	226.14
382.87	226.07
383.25	226.03
383.62	226.21
384.00	226.12
384.38	226.10
384.76	226.10
385.13	226.11
385.51	226.08
385.89	226.02
386.27	225.99
386.64	225.99
387.02	225.94
387.40	225.89
387.78	225.88
388.15	225.86
388.53	225.83
388.91	225.81
389.29	225.78
389.66	225.79
390.04	225.74
390.42	225.76
390.79	225.76
391.17	225.75
391.55	225.53
391.92	225.54
392.30	225.55
392.68	225.50
393.05	225.48
393.43	225.49
393.81	225.51
394.18	225.50
394.56	225.51
394.94	225.57
395.31	225.58
395.69	225.66
396.06	225.71
396.44	225.75
396.82	225.77
397.19	225.91
397.57	225.93
397.95	226.00
398.32	226.00
398.70	226.08
399.07	226.18
399.45	226.24
399.82	226.31
400.20	226.37
400.58	226.46
400.95	226.48
401.33	226.62
401.70	226.85
402.08	227.00
402.45	227.13
402.83	227.30
403.20	227.48
403.58	227.62
403.95	227.83
404.33	228.06
404.71	228.28
405.08	228.59
405.46	228.85
405.83	229.13
406.21	229.43
406.58	229.77
406.96	230.10
407.33	230.49
407.70	230.91
408.08	231.50
408.45	232.02
408.83	232.58
409.20	233.09
409.58	233.55
409.95	234.19
410.33	234.88
410.70	235.53
411.08	236.31
411.45	237.12
411.82	237.95
412.20	238.91
412.57	240.03
412.95	240.93
413.32	242.09
413.69	243.29
414.07	244.56
414.44	245.95
414.82	247.36
415.19	249.02
415.56	250.71
415.94	252.47
416.31	254.44
416.68	256.42
417.06	258.71
417.43	260.85
417.81	263.32
418.18	265.83
418.55	268.57
418.93	271.42
419.30	274.40
419.67	277.57
420.04	280.82
420.42	284.22
420.79	288.14
421.16	292.10
421.54	296.10
421.91	300.30
422.28	304.66
422.66	309.35
423.03	313.80
423.40	318.48
423.77	323.48
424.15	328.59
424.52	333.90
424.89	339.65
425.26	345.34
425.64	350.62
426.01	356.57
426.38	362.64
426.75	368.88
427.13	375.26
427.50	381.95
427.87	388.89
428.24	395.89
428.61	402.57
428.99	409.80
429.36	417.73
429.73	425.31
430.10	432.87
430.47	440.61
430.85	448.60
431.22	457.09
431.59	465.83
431.96	474.36
432.33	483.84
432.70	492.85
433.08	503.54
433.45	513.60
433.82	523.57
434.19	534.74
434.56	545.73
434.93	556.39
435.30	566.96
435.68	578.94
436.05	590.68
436.42	602.43
436.79	613.18
437.16	624.89
437.53	637.37
437.90	649.86
438.27	662.13
438.64	675.42
439.01	687.51
439.38	698.58
439.75	709.30
440.13	721.55
440.50	733.18
440.87	742.51
441.24	752.77
441.61	764.02
441.98	772.38
442.35	782.30
442.72	792.39
443.09	802.02
443.46	808.35
443.83	813.16
444.20	817.22
444.57	822.99
444.94	826.49
445.31	830.12
445.68	833.29
446.05	835.74
446.42	835.64
446.79	835.28
447.16	835.02
447.53	834.83
447.90	831.41
448.27	828.21
448.64	823.02
449.01	819.51
449.37	811.93
449.74	805.04
450.11	796.11
450.48	786.28
450.85	776.37
451.22	767.90
451.59	759.55
451.96	751.98
452.33	740.99
452.70	731.17
453.07	719.26
453.43	707.35
453.80	695.72
454.17	684.55
454.54	674.27
454.91	662.65
455.28	651.65
455.65	641.27
456.02	630.23
456.38	621.35
456.75	609.99
457.12	600.83
457.49	591.59
457.86	582.82
458.23	575.10
458.59	566.61
458.96	557.89
459.33	550.23
459.70	542.42
460.07	536.45
460.43	529.45
460.80	522.90
461.17	517.19
461.54	511.05
461.91	505.26
462.27	499.37
462.64	494.57
463.01	489.10
463.38	483.58
463.74	478.59
464.11	474.16
464.48	470.15
464.85	465.84
465.21	462.54
465.58	458.87
465.95	454.71
466.32	451.40
466.68	448.17
467.05	444.92
467.42	441.75
467.78	438.36
468.15	435.22
468.52	432.92
468.88	429.86
469.25	427.07
469.62	424.87
469.98	422.48
470.35	420.36
470.72	418.41
471.08	416.46
471.45	414.83
471.82	412.99
472.18	411.07
472.55	409.83
472.92	408.27
473.28	407.05
473.65	405.75
474.02	404.49
474.38	403.42
474.75	402.77
475.11	401.90
475.48	401.48
475.85	401.02
476.21	400.73
476.58	400.53
476.94	400.67
477.31	400.68
477.67	400.71
478.04	400.97
478.41	401.37
478.77	401.95
479.14	402.28
479.50	403.04
479.87	404.02
480.23	404.98
480.60	405.89
480.96	406.79
481.33	408.21
481.69	409.59
482.06	410.95
482.42	412.19
482.79	413.75
483.15	415.59
483.52	417.66
483.88	419.64
484.25	421.75
484.61	423.95
484.98	426.33
485.34	429.02
485.71	431.81
486.07	434.83
486.44	437.79
486.80	441.14
487.17	444.55
487.53	448.26
487.90	452.14
488.26	456.38
488.62	460.86
488.99	465.32
489.35	470.01
489.72	475.07
490.08	480.38
490.44	485.81
490.81	491.44
491.17	497.26
491.54	503.50
491.90	509.87
492.26	516.69
492.63	523.85
492.99	531.33
493.36	538.99
493.72	547.02
494.08	555.27
494.45	563.93
494.81	572.98
495.17	582.26
495.54	592.07
495.90	602.32
496.26	612.74
496.63	623.50
496.99	634.64
497.35	646.30
497.72	658.29
498.08	670.58
498.44	683.23
498.80	696.56
499.17	710.18
499.53	724.26
499.89	738.77
500.26	753.53
500.62	768.63
500.98	784.64
501.34	800.70
501.71	817.47
502.07	834.60
502.43	852.19
502.79	870.07
503.16	888.40
503.52	906.97
503.88	925.96
504.24	945.42
504.60	965.15
504.97	985.48
505.33	1006.32
505.69	1028.28
506.05	1050.47
506.41	1072.67
506.78	1095.03
507.14	1117.90
507.50	1141.31
507.86	1165.08
508.22	1189.10
508.59	1212.98
508.95	1237.87
509.31	1263.37
509.67	1289.53
510.03	1315.69
510.39	1341.70
510.75	1367.82
511.12	1394.21
511.48	1421.01
511.84	1447.74
512.20	1474.75
512.56	1502.93
512.92	1531.01
513.28	1558.36
513.64	1586.15
514.00	1614.33
514.37	1642.80
514.73	1671.35
515.09	1699.23
515.45	1727.34
515.81	1755.84
516.17	1784.07
516.53	1811.62
516.89	1838.85
517.25	1866.33
517.61	1893.64
517.97	1921.61
518.33	1949.08
518.69	1976.54
519.05	2004.24
519.41	2032.13
519.77	2060.27
520.13	2086.79
520.49	2113.19
520.85	2140.06
521.21	2166.33
521.57	2192.93
521.93	2218.34
522.29	2244.53
522.65	2270.50
523.01	2296.24
523.37	2321.16
523.73	2346.86
524.09	2372.23
524.45	2397.46
524.81	2422.14
525.17	2446.68
525.53	2470.18
525.89	2494.22
526.25	2517.94
526.61	2539.90
526.97	2561.96
527.33	2583.61
527.68	2605.33
528.04	2626.63
528.40	2646.89
528.76	2667.05
529.12	2686.64
529.48	2707.10
529.84	2724.83
530.20	2742.78
530.56	2760.13
530.91	2777.44
531.27	2794.07
531.63	2809.93
531.99	2825.23
532.35	2840.30
532.71	2855.03
533.07	2870.31
533.42	2883.56
533.78	2896.85
534.14	2911.33
534.50	2924.72
534.86	2938.76
535.21	2950.21
535.57	2961.66
535.93	2972.57
536.29	2981.95
536.65	2991.07
537.00	2998.94
537.36	3007.84
537.72	3015.98
538.08	3023.68
538.44	3030.01
538.79	3036.28
539.15	3041.25
539.51	3045.53
539.87	3048.47
540.22	3049.61
540.58	3051.03
540.94	3052.98
541.29	3054.09
541.65	3053.67
542.01	3052.79
542.37	3050.13
542.72	3049.38
543.08	3046.79
543.44	3044.37
543.79	3041.80
544.15	3038.47
544.51	3034.91
544.87	3030.48
545.22	3025.06
545.58	3019.02
545.94	3013.48
546.29	3006.53
546.65	2999.59
547.01	2992.78
547.36	2986.62
547.72	2980.65
548.07	2972.89
548.43	2964.01
548.79	2954.63
549.14	2945.56
549.50	2936.64
549.86	2926.94
550.21	2915.33
550.57	2905.05
550.92	2893.19
551.28	2881.32
551.64	2869.81
551.99	2858.16
552.35	2846.06
552.70	2833.85
553.06	2822.22
553.41	2810.14
553.77	2797.55
554.13	2785.11
554.48	2771.57
554.84	2756.63
555.19	2742.11
555.55	2727.69
555.90	2713.79
556.26	2700.21
556.61	2685.57
556.97	2669.74
557.32	2654.25
557.68	2639.24
558.03	2623.78
558.39	2609.15
558.74	2595.37
559.10	2579.75
559.45	2563.96
559.81	2548.80
560.16	2533.22
560.52	2517.33
560.87	2501.82
561.23	2485.79
561.58	2470.34
561.94	2454.53
562.29	2438.41
562.64	2422.47
563.00	2406.47
563.35	2390.79
563.71	2374.58
564.06	2358.57
564.42	2343.06
564.77	2327.74
565.12	2312.07
565.48	2296.00
565.83	2279.98
566.19	2263.86
566.54	2247.92
566.89	2231.64
567.25	2215.42
567.60	2200.12
567.96	2184.30
568.31	2166.82
568.66	2150.02
569.02	2133.96
569.37	2118.46
569.72	2103.48
570.08	2088.12
570.43	2072.08
570.78	2055.76
571.14	2039.46
571.49	2023.06
571.84	2006.90
572.20	1989.49
572.55	1972.74
572.90	1956.20
573.26	1939.94
573.61	1922.99
573.96	1906.52
574.31	1889.95
574.67	1872.98
575.02	1855.62
575.37	1838.24
575.72	1821.78
576.08	1805.29
576.43	1787.74
576.78	1770.52
577.13	1753.56
577.49	1736.74
577.84	1720.53
578.19	1703.89
578.54	1687.13
578.90	1670.31
579.25	1653.26
579.60	1637.59
579.95	1621.61
580.30	1605.60
580.66	1589.24
581.01	1573.01
581.36	1556.79
581.71	1541.47
582.06	1526.24
582.42	1510.85
582.77	1495.77
583.12	1480.98
583.47	1466.30
583.82	1451.80
584.17	1436.65
584.53	1421.64
584.88	1406.96
585.23	1392.12
585.58	1377.68
585.93	1363.09
586.28	1349.53
586.63	1335.91
586.98	1321.70
587.34	1307.97
587.69	1294.06
588.04	1280.42
588.39	1267.06
588.74	1253.39
589.09	1239.83
589.44	1225.90
589.79	1212.67
590.14	1199.50
590.49	1186.30
590.84	1173.31
591.19	1160.74
591.54	1148.35
591.89	1135.61
592.25	1123.14
592.60	1110.55
592.95	1098.10
593.30	1086.15
593.65	1073.86
594.00	1061.89
594.35	1050.85
594.70	1039.09
595.05	1027.94
595.40	1016.70
595.75	1005.30
596.10	994.54
596.45	983.65
596.80	973.32
597.15	962.87
597.50	952.39
597.85	942.35
598.19	932.27
598.54	922.14
598.89	912.52
599.24	903.32
599.59	893.82
599.94	885.07
600.29	876.41
600.64	867.49
600.99	858.47
601.34	849.83
601.69	840.63
602.04	832.39
602.39	824.06
602.74	815.95
603.08	807.94
603.43	799.94
603.78	791.98
604.13	784.01
604.48	776.05
604.83	768.45
605.18	760.78
605.53	753.34
605.87	745.91
606.22	738.58
606.57	731.17
606.92	723.74
607.27	716.32
607.62	709.04
607.96	702.04
608.31	695.58
608.66	688.93
609.01	682.60
609.36	676.24
609.70	669.87
610.05	663.48
610.40	657.28
610.75	651.04
611.10	645.07
611.44	639.06
611.79	633.26
612.14	627.30
612.49	621.43
612.83	615.88
613.18	610.41
613.53	604.94
613.88	599.59
614.22	594.64
614.57	589.60
614.92	584.70
615.27	579.91
615.61	575.00
615.96	570.18
616.31	565.32
616.65	560.61
617.00	556.03
617.35	551.53
617.70	547.05
618.04	542.69
618.39	538.41
618.74	534.42
619.08	530.37
619.43	526.48
619.78	522.57
620.12	518.56
620.47	514.77
620.82	511.08
621.16	507.45
621.51	503.86
621.85	500.26
622.20	496.70
622.55	493.19
622.89	489.70
623.24	486.39
623.59	483.16
623.93	480.00
624.28	476.95
624.62	474.11
624.97	471.31
625.32	468.44
625.66	465.54
626.01	462.58
626.35	459.81
626.70	456.99
627.04	454.36
627.39	451.72
627.73	449.15
628.08	446.61
628.43	444.09
628.77	441.52
629.12	439.04
629.46	436.69
629.81	434.48
630.15	432.18
630.50	429.91
630.84	427.69
631.19	425.51
631.53	423.44
631.88	421.19
632.22	419.01
632.57	417.15
632.91	415.24
633.26	413.40
633.60	411.57
633.95	409.84
634.29	408.00
634.64	406.20
634.98	404.30
635.32	402.58
635.67	401.03
636.01	399.47
636.36	397.97
636.70	396.53
637.05	394.93
637.39	393.50
637.73	392.06
638.08	390.69
638.42	389.37
638.77	387.92
639.11	386.43
639.45	385.00
639.80	383.52
640.14	382.11
640.49	380.70
640.83	379.30
641.17	377.97
641.52	376.64
641.86	375.36
642.20	374.24
642.55	372.94
642.89	371.65
643.23	370.43
643.58	369.35
643.92	368.11
644.26	366.96
644.61	365.86
644.95	364.71
645.29	363.52
645.64	362.30
645.98	361.20
646.32	360.23
646.66	359.18
647.01	358.16
647.35	357.24
647.69	356.27
648.04	355.39
648.38	354.42
648.72	353.51
649.06	352.59
649.41	351.66
649.75	350.78
650.09	349.92
650.43	349.04
650.78	348.11
651.12	347.26
651.46	346.42
651.80	345.59
652.14	344.82
652.49	344.11
652.83	343.33
653.17	342.52
653.51	341.72
653.85	341.06
654.20	340.35
654.54	339.54
654.88	338.78
655.22	338.08
655.56	337.34
655.90	336.66
656.25	335.98
656.59	335.31
656.93	334.67
657.27	334.09
657.61	333.43
657.95	332.85
658.29	332.23
658.64	331.63
658.98	330.97
659.32	330.32
659.66	329.71
660.00	329.15
660.34	328.59
660.68	327.98
661.02	327.30
661.36	326.67
661.70	326.09
662.05	325.52
662.39	324.96
662.73	324.50
663.07	324.07
663.41	323.60
663.75	323.07
664.09	322.56
664.43	321.93
664.77	321.40
665.11	320.82
665.45	320.29
665.79	319.78
666.13	319.27
666.47	318.74
666.81	318.17
667.15	317.56
667.49	317.08
667.83	316.67
668.17	316.21
668.51	315.81
668.85	315.42
669.19	315.08
669.53	314.56
669.87	314.01
670.21	313.45
670.55	312.94
670.89	312.53
671.23	312.07
671.57	311.66
671.91	311.32
672.25	310.99
672.58	310.66
672.92	310.23
673.26	309.88
673.60	309.54
673.94	309.17
674.28	308.84
674.62	308.48
674.96	308.05
675.30	307.70
675.64	307.28
675.97	306.82
676.31	306.34
676.65	305.94
676.99	305.62
677.33	305.18
677.67	304.80
678.01	304.32
678.34	303.93
678.68	303.55
679.02	303.10
679.36	302.66
679.70	302.20
680.04	301.80
680.37	301.38
680.71	300.99
681.05	300.63
681.39	300.23
681.73	299.77
682.06	299.35
682.40	298.94
682.74	298.59
683.08	298.29
683.42	297.91
683.75	297.57
684.09	297.11
684.43	296.73
684.77	296.32
685.10	295.95
685.44	295.55
685.78	295.13
686.12	294.74
686.45	294.31
686.79	293.88
687.13	293.48
687.46	293.04
687.80	292.62
688.14	292.16
688.48	291.74
688.81	291.32
689.15	290.95
689.49	290.51
689.82	290.07
690.16	289.52
690.50	289.08
690.83	288.63
691.17	288.17
691.51	287.74
691.84	287.34
692.18	286.89
692.52	286.44
692.85	286.01
693.19	285.63
693.52	285.21
693.86	284.77
694.20	284.34
694.53	283.92
694.87	283.45
695.21	283.00
695.54	282.55
695.88	282.09
696.21	281.59
696.55	281.15
696.88	280.69
697.22	280.27
697.56	279.86
697.89	279.39
698.23	278.97
698.56	278.52
698.90	278.11
699.23	277.65
699.57	277.24
699.90	276.81
700.24	276.34
700.58	275.92
700.91	275.55
701.25	275.29
701.58	274.97
701.92	274.62
702.25	274.24
702.59	273.83
702.92	273.44
703.26	273.03
703.59	272.62
703.93	272.35
704.26	271.95
704.60	271.52
704.93	271.12
705.26	270.70
705.60	270.34
705.93	269.89
706.27	269.56
706.60	269.22
706.94	268.90
707.27	268.47
707.61	268.07
707.94	267.65
708.27	267.09
708.61	266.61
708.94	266.18
709.28	265.79
709.61	265.41
709.94	265.05
710.28	264.71
710.61	264.38
710.95	263.86
711.28	263.62
711.61	263.26
711.95	262.95
712.28	262.58
712.61	262.20
712.95	261.94
713.28	261.66
713.61	261.26
713.95	260.86
714.28	260.55
714.61	260.18
714.95	259.85
715.28	259.51
715.61	259.19
715.95	258.89
716.28	258.56
716.61	258.28
716.95	257.94
717.28	257.62
717.61	257.29
717.94	257.00
718.28	256.57
718.61	256.27
718.94	255.94
719.27	255.65
719.61	255.38
719.94	255.05
720.27	254.67
720.60	254.39
720.94	254.10
721.27	253.83
721.60	253.59
721.93	253.31
722.27	253.09
722.60	252.81
722.93	252.50
723.26	252.26
723.59	251.95
723.93	251.71
724.26	251.47
724.59	251.21
724.92	250.97
725.25	250.77
725.59	250.52
725.92	250.30
726.25	250.05
726.58	249.81
726.91	249.55
727.24	249.34
727.57	249.09
727.91	248.82
728.24	248.61
728.57	248.36
728.90	248.16
729.23	247.87
729.56	247.74
729.89	247.52
730.22	247.29
730.55	247.08
730.89	246.86
731.22	246.63
731.55	246.41
731.88	246.21
732.21	245.96
732.54	245.74
732.87	245.53
733.20	245.35
733.53	245.16
733.86	244.98
734.19	244.76
734.52	244.61
734.85	244.56
735.18	244.34
735.51	244.21
735.84	244.03
736.17	243.91
736.50	243.63
736.83	243.67
737.16	243.48
737.49	243.31
737.82	243.12
738.15	242.97
738.48	242.78
738.81	242.59
739.14	242.40
739.47	242.22
739.80	242.04
740.13	241.87
740.46	241.67
740.79	241.47
741.12	241.28
741.45	241.07
741.78	240.80
742.11	240.67
742.44	240.44
742.77	240.30
743.10	240.10
743.43	239.93
743.75	239.58
744.08	239.70
744.41	239.52
744.74	239.36
745.07	239.17
745.40	239.07
745.73	239.00
746.06	238.86
746.39	238.75
746.71	238.60
747.04	238.43
747.37	238.29
747.70	238.18
748.03	238.05
748.36	237.95
748.68	237.82
749.01	237.63
749.34	237.51
749.67	237.38
750.00	237.28
750.33	237.28
750.65	237.17
750.98	236.77
751.31	236.66
751.64	236.56
751.97	236.54
752.29	236.39
752.62	236.18
752.95	236.04
753.28	235.89
753.60	235.77
753.93	235.69
754.26	235.60
754.59	235.43
754.91	235.29
755.24	235.15
755.57	235.04
755.90	234.93
756.22	234.79
756.55	234.65
756.88	234.50
757.20	234.26
757.53	234.10
757.86	233.99
758.19	233.90
758.51	233.78
758.84	233.58
759.17	233.46
759.49	233.38
759.82	233.37
760.15	233.29
760.47	233.19
760.80	233.05
761.13	232.97
761.45	232.88
761.78	232.80
762.11	232.71
762.43	232.59
762.76	232.50
763.08	232.43
763.41	232.36
763.74	232.29
764.06	232.20
764.39	232.13
764.71	232.04
765.04	231.93
765.37	231.84
765.69	231.76
766.02	231.68
766.34	231.58
766.67	231.43
767.00	231.39
767.32	231.42
767.65	231.46
767.97	231.37
768.30	231.31
768.62	231.23
768.95	231.14
769.27	231.07
769.60	231.03
769.92	230.94
770.25	230.84
770.57	230.74
770.90	230.67
771.22	230.59
771.55	230.54
771.87	230.49
772.20	230.43
772.52	230.53
772.85	230.70
773.17	230.64
773.50	230.57
773.82	230.48
774.15	230.33
774.47	230.16
774.80	230.09
775.12	230.03
775.45	229.97
775.77	229.94
776.09	229.90
776.42	229.84
776.74	229.85
777.07	229.80
777.39	229.77
777.72	229.71
778.04	229.69
778.36	229.62
778.69	229.58
779.01	229.54
779.33	229.34
779.66	229.08
779.98	229.03
780.31	229.00
780.63	229.04
780.95	229.03
781.28	228.99
781.60	228.93
781.92	228.89
782.25	228.85
782.57	228.81
782.89	228.76
783.22	228.71
783.54	228.63
783.86	228.60
784.19	228.56
784.51	228.58
784.83	228.52
785.16	228.48
785.48	228.44
785.80	228.40
786.12	228.38
786.45	228.35
786.77	228.33
787.09	228.29
787.42	228.18
787.74	228.15
788.06	228.13
788.38	228.10
788.71	228.06
789.03	228.03
789.35	228.02
789.67	227.97
789.99	227.95
790.32	227.91
790.64	227.90
790.96	228.04
791.28	227.95
791.61	227.92
791.93	227.91
792.25	227.87
792.57	227.97
792.89	227.92
793.21	227.90
793.54	227.85
793.86	227.80
794.18	227.79
794.50	227.74
794.82	227.71
795.14	227.70
795.47	227.71
795.79	227.69
796.11	227.62
796.43	227.60
796.75	227.57
797.07	227.55
797.39	227.52
797.71	227.34
798.04	227.33
798.36	227.31
798.68	227.29
799.00	227.28
799.32	227.16
799.64	227.17
799.96	227.15
800.28	227.16
800.60	227.14
800.92	227.13
801.24	227.10
801.56	227.10
801.89	227.06
802.21	227.04
802.53	226.99
802.85	227.02
803.17	227.08
803.49	227.03
803.81	226.99
804.13	226.96
804.45	226.92
804.77	226.92
805.09	226.89
805.41	226.86
805.73	226.81
806.05	226.74
806.37	226.70
806.69	226.67
807.01	226.63
807.33	226.62
807.65	226.54
807.97	226.61
808.28	226.56
808.60	226.54
808.92	226.49
809.24	226.59
809.56	226.54
809.88	226.46
810.20	226.46
810.52	226.48
810.84	226.44
811.16	226.41
811.48	226.38
811.80	226.43
812.12	226.41
812.43	226.43
812.75	226.44
813.07	226.41
813.39	226.40
813.71	226.37
814.03	226.34
814.35	226.34
814.67	226.25
814.98	226.22
815.30	226.21
815.62	226.17
815.94	226.03
816.26	226.04
816.58	226.00
816.89	226.00
817.21	225.95
817.53	225.95
817.85	225.95
818.17	225.93
818.48	225.85
818.80	225.88
819.12	225.83
819.44	225.79
819.76	225.76
820.07	225.74
820.39	225.73
820.71	225.73
821.03	225.72
821.34	225.70
821.66	225.72
821.98	225.72
822.30	225.71
822.61	225.82
822.93	225.77
823.25	225.76
823.57	225.73
823.88	225.75
824.20	225.74
824.52	225.76
824.83	225.74
825.15	225.71
825.47	225.68
825.79	225.69
826.10	225.68
826.42	225.67
826.74	225.67
827.05	225.66
827.37	225.66
827.69	225.64
828.00	225.64
828.32	225.62
828.64	225.59
828.95	225.68
829.27	225.62
829.58	225.62
829.90	225.64
830.22	225.65
830.53	225.61
830.85	225.58
831.17	225.52
831.48	225.52
831.80	225.52
832.11	225.51
832.43	225.47
832.75	225.47
833.06	225.57
833.38	225.52
833.69	225.51
834.01	225.50
834.32	225.49
834.64	225.47
834.96	225.46
835.27	225.45
835.59	225.38
835.90	225.34
836.22	225.34
836.53	225.29
836.85	225.26
837.16	225.44
837.48	225.44
837.79	225.50
838.11	225.50
838.42	225.49
838.74	225.51
839.05	225.49
839.37	225.48
839.68	225.36
840.00	225.35
840.31	225.37
840.63	225.34
840.94	225.32
841.26	225.31
841.57	225.29
841.88	225.31
842.20	225.27
842.51	225.25
842.83	225.24
843.14	225.40
843.46	225.39
843.77	225.28
844.08	225.27
844.40	225.20
844.71	225.18
845.03	225.16
845.34	225.14
845.65	225.13
845.97	225.13
846.28	225.14
846.60	225.15
846.91	225.12
847.22	225.11
847.54	225.15
847.85	225.16
848.16	225.14
848.48	225.10
848.79	225.18
849.10	225.19
849.42	225.20
849.73	225.02
850.04	225.02
850.36	224.96
850.67	224.98
850.98	224.99
851.30	225.00
851.61	225.00
851.92	224.99
852.23	225.04
852.55	225.05
852.86	225.05
853.17	225.06
853.49	225.09
853.80	225.12
854.11	225.13
854.42	225.14
854.74	225.12
855.05	225.13
855.36	225.03
855.67	225.03
855.99	225.02
856.30	225.24
856.61	225.23
856.92	225.24
857.23	225.24
857.55	225.21
857.86	225.20
858.17	225.22
858.48	225.19
858.79	225.14
859.11	225.16
859.42	225.14
859.73	225.11
860.04	225.10
860.35	225.04
860.66	224.98
860.98	224.97
861.29	225.00
861.60	224.98
861.91	225.02
862.22	224.99
862.53	224.96
862.84	224.74
863.16	224.77
863.47	224.74
863.78	224.71
864.09	224.73
864.40	224.74
864.71	224.74
865.02	224.77
865.33	224.74
865.64	224.71
865.95	224.71
866.27	224.82
866.58	224.80
866.89	224.83
867.20	224.83
867.51	224.80
867.82	224.78
868.13	224.84
868.44	224.80
868.75	224.84
869.06	224.85
869.37	224.87
869.68	224.82
869.99	224.86
870.30	224.86
870.61	224.88
870.92	224.85
871.23	224.83
871.54	224.85
871.85	224.89
872.16	224.92
872.47	224.90
872.78	224.80
873.09	224.81
873.40	224.79
873.71	224.80
874.02	224.82
874.33	224.80
874.64	224.75
874.95	224.79
875.26	224.74
875.56	224.74
875.87	224.72
876.18	224.71
876.49	224.89
876.80	224.87
877.11	224.83
877.42	224.84
877.73	224.84
878.04	224.81
878.35	224.80
878.66	224.80
878.96	224.80
879.27	224.80
879.58	224.78
879.89	224.78
880.20	224.82
880.51	224.81
880.82	224.82
881.12	224.82
881.43	224.78
881.74	224.76
882.05	224.76
882.36	224.77
882.67	224.78
882.97	224.58
883.28	224.57
883.59	224.57
883.90	224.58
884.21	224.61
884.51	224.60
884.82	224.56
885.13	224.56
885.44	224.56
885.74	224.56
886.05	224.55
886.36	224.55
886.67	224.48
886.98	224.58
887.28	224.59
887.59	224.59
887.90	224.59
888.20	224.59
888.51	224.62
888.82	224.59
889.13	224.60
889.43	224.76
889.74	224.75
890.05	224.75
890.35	224.73
890.66	224.69
890.97	224.68
891.28	224.66
891.58	224.66
891.89	224.66
892.20	224.65
892.50	224.63
892.81	224.62
893.12	224.62
893.42	224.53
893.73	224.53
894.04	224.52
894.34	224.54
894.65	224.54
894.95	224.52
895.26	224.53
895.57	224.60
895.87	224.42
896.18	224.45
896.48	224.46
896.79	224.46
897.10	224.49
897.40	224.51
897.71	224.53
898.01	224.51
898.32	224.53
898.63	224.52
898.93	224.54
899.24	224.54
899.54	224.54
899.85	224.53
900.15	224.52
900.46	224.52
900.76	224.54
901.07	224.53
901.38	224.53
901.68	224.55
901.99	224.45
902.29	224.47
902.60	224.45
902.90	224.43
903.21	224.43
903.51	224.41
903.82	224.45
904.12	224.45
904.43	224.46
904.73	224.44
905.03	224.45
905.34	224.63
905.64	224.61
905.95	224.62
906.25	224.61
906.56	224.61
906.86	224.61
907.17	224.59
907.47	224.60
907.77	224.58
908.08	224.55
908.38	224.56
908.69	224.58
908.99	224.61
909.30	224.62
909.60	224.61
909.90	224.61
910.21	224.56
910.51	224.53
910.81	224.53
911.12	224.54
911.42	224.55
911.73	224.35
912.03	224.37
912.33	224.40
912.64	224.39
912.94	224.37
913.24	224.34
913.55	224.33
913.85	224.31
914.15	224.35
914.46	224.37
914.76	224.35
915.06	224.33
915.37	224.30
915.67	224.29
915.97	224.29
916.27	224.26
916.58	224.27
916.88	224.27
917.18	224.26
917.49	224.38
917.79	224.37
918.09	224.40
918.39	224.44
918.70	224.42
919.00	224.43
919.30	224.52
919.60	224.52
919.91	224.50
920.21	224.51
920.51	224.47
920.81	224.46
921.12	224.49
921.42	224.48
921.72	224.50
922.02	224.51
922.32	224.53
922.63	224.54
922.93	224.64
923.23	224.65
923.53	224.63
923.83	224.51
924.13	224.53
924.44	224.52
924.74	224.55
925.04	224.59
925.34	224.59
925.64	224.51
925.94	224.52
926.24	224.63
926.55	224.61
926.85	224.63
927.15	224.63
927.45	224.63
927.75	224.63
928.05	224.63
928.35	224.62
928.65	224.65
928.95	224.67
929.26	224.58
929.56	224.61
929.86	224.63
930.16	224.62
930.46	224.60
930.76	224.60
931.06	224.52
931.36	224.47
931.66	224.50
931.96	224.52
932.26	224.53
932.56	224.45
932.86	224.46
933.16	224.46
933.46	224.45
933.76	224.42
934.06	224.45
934.36	224.51
934.66	224.50
934.96	224.47
935.26	224.47
935.56	224.50
935.86	224.45
936.16	224.43
936.46	224.42
936.76	224.40
937.06	224.38
937.36	224.40
937.66	224.40
937.96	224.39
938.26	224.35
938.56	224.33
938.86	224.35
939.16	224.39
939.46	224.40
939.76	224.41
940.06	224.41
940.35	224.38
940.65	224.29
940.95	224.30
941.25	224.26
941.55	224.24
941.85	224.22
942.15	224.26
942.45	224.31
942.75	224.31
943.04	224.32
943.34	224.35
943.64	224.33
943.94	224.31
944.24	224.31
944.54	224.32
944.84	224.32
945.13	224.29
945.43	224.25
945.73	224.24
946.03	224.22
946.33	224.20
946.62	224.19
946.92	224.18
947.22	224.19
947.52	224.21
947.82	224.23
948.11	224.21
948.41	224.17
948.71	224.12
949.01	224.14
949.31	224.12
949.60	224.10
949.90	224.13
950.20	224.12
950.50	224.11
950.79	224.10
951.09	224.13
951.39	224.13
951.69	224.11
951.98	224.15
952.28	224.16
952.58	224.16
952.87	224.16
953.17	224.19
953.47	224.17
953.76	224.17
954.06	224.13
954.36	224.11
954.66	224.11
954.95	224.16
955.25	224.17
955.55	224.19
955.84	224.16
956.14	224.17
956.44	224.19
956.73	224.16
957.03	224.18
957.32	224.18
957.62	224.17
957.92	224.21
958.21	224.19
958.51	224.40
958.81	224.42
959.10	224.45
959.40	224.48
959.69	224.50
959.99	224.53
960.29	224.53
960.58	224.53
960.88	224.60
961.17	224.57
961.47	224.58
961.76	224.56
962.06	224.60
962.36	224.57
962.65	224.58
962.95	224.60
963.24	224.58
963.54	224.58
963.83	224.60
964.13	224.58
964.42	224.56
964.72	224.41
965.01	224.41
965.31	224.40
965.60	224.35
965.90	224.46
966.19	224.42
966.49	224.43
966.78	224.43
967.08	224.41
967.37	224.41
967.67	224.38
967.96	224.41
968.26	224.40
968.55	224.43
968.85	224.42
969.14	224.41
969.43	224.41
969.73	224.39
970.02	224.39
970.32	224.38
970.61	224.35
970.91	224.30
971.20	224.27
971.49	224.25
971.79	224.28
972.08	224.14
972.38	224.16
972.67	224.15
972.96	224.17
973.26	224.14
973.55	224.19
973.85	224.18
974.14	224.16
974.43	224.18
974.73	224.15
975.02	224.13
975.31	224.14
975.61	224.13
975.90	224.12
976.19	224.10
976.49	224.12
976.78	224.13
977.07	224.13
977.37	224.14
977.66	224.16
977.95	224.13
978.24	224.15
978.54	224.19
978.83	224.18
979.12	224.16
979.42	224.16
979.71	224.12
980.00	224.12
980.29	224.13
980.59	224.09
980.88	224.13
981.17	224.13
981.46	224.13
981.76	224.13
982.05	224.19
982.34	224.21
982.63	224.21
982.93	224.21
983.22	224.26
983.51	224.26
983.80	224.29
984.09	224.31
984.39	224.30
984.68	224.27
984.97	224.29
985.26	224.28
985.55	224.29
985.85	224.26
986.14	224.29
986.43	224.31
986.72	224.30
987.01	224.25
987.30	224.25
987.59	224.23
987.89	224.24
988.18	224.18
988.47	224.17
988.76	224.15
989.05	224.14
989.34	224.11
989.63	224.15
989.92	224.11
990.22	224.09
990.51	224.08
990.80	224.07
991.09	224.09
991.38	224.11
991.67	224.09
991.96	224.08
992.25	224.08
992.54	224.04
992.83	224.04
993.12	224.04
993.41	224.07
993.70	224.15
993.99	224.18
994.28	224.21
994.58	224.24
994.87	224.22
995.16	224.22
995.45	224.20
995.74	224.14
996.03	224.17
996.32	224.20
996.61	224.24
996.90	224.23
997.19	224.22
997.48	224.22
997.77	224.20
998.06	224.22
998.34	224.20
998.63	224.21
998.92	224.22
999.21	224.25
999.50	224.24
999.79	224.18
1000.08	224.17
1000.37	224.17
1000.66	224.14
1000.95	224.19
1001.24	224.20
1001.53	224.23
1001.82	224.23
1002.11	224.19
1002.40	224.20
1002.68	224.23
1002.97	224.37
1003.26	224.35
1003.55	224.32
1003.84	224.34
1004.13	224.40
1004.42	224.39
1004.71	224.39
1004.99	224.38
1005.28	224.42
1005.57	224.40
1005.86	224.38
1006.15	224.37
1006.44	224.34
1006.72	224.36
1007.01	224.33
1007.30	224.33
1007.59	224.31
1007.88	224.30
1008.17	224.32
1008.45	224.28
1008.74	224.20
1009.03	224.11
1009.32	224.11
1009.60	224.11
1009.89	224.10
1010.18	224.03
1010.47	224.02
1010.76	224.02
1011.04	224.01
1011.33	224.01
1011.62	224.02
1011.91	224.04
1012.19	224.05
1012.48	224.07
1012.77	224.06
1013.05	224.12
1013.34	224.12
1013.63	224.11
1013.92	224.13
1014.20	224.12
1014.49	224.13
1014.78	224.15
1015.06	224.09
1015.35	224.10
1015.64	224.12
1015.92	224.15
1016.21	224.16
1016.50	224.16
1016.78	224.19
1017.07	224.20
1017.36	224.17
1017.64	224.14
1017.93	224.16
1018.22	224.14
1018.50	224.13
1018.79	224.13
1019.08	224.06
1019.36	224.07
1019.65	224.06
1019.93	224.10
1020.22	224.13
1020.51	224.23
1020.79	224.20
1021.08	223.90
1021.36	223.83
1021.65	224.11
1021.94	224.03
1022.22	224.27
1022.51	223.78
1022.79	225.05
1023.08	224.36
1023.36	226.30
1023.65	223.59
>>>>>End Processed Spectral Data<<<<<
