SpectraSuite Data File
++++++++++++++++++++++++++++++++++++
Date: Tue Oct 06 12:25:45 EDT 2015
User: lab3
Dark Spectrum Present: No
Reference Spectrum Present: No
Number of Sampled Component Spectra: 1
Spectrometers: USB2E7196
Integration Time (usec): 66000 (USB2E7196)
Spectra Averaged: 1000 (USB2E7196)
Boxcar Smoothing: 10 (USB2E7196)
Correct for Electrical Dark: No (USB2E7196)
Strobe/Lamp Enabled: No (USB2E7196)
Correct for Detector Non-linearity: No (USB2E7196)
Correct for Stray Light: No (USB2E7196)
Number of Pixels in Processed Spectrum: 2048
>>>>>Begin Processed Spectral Data<<<<<
339.09	0.00
339.48	216.62
339.86	218.18
340.24	219.52
340.63	220.93
341.01	224.94
341.39	223.69
341.78	225.21
342.16	226.54
342.54	226.80
342.93	215.13
343.31	225.99
343.69	226.54
344.07	227.01
344.46	227.46
344.84	227.87
345.22	228.07
345.60	228.35
345.99	228.56
346.37	228.70
346.75	228.81
347.13	228.90
347.52	228.98
347.90	229.10
348.28	229.14
348.66	229.22
349.05	229.22
349.43	229.29
349.81	229.36
350.19	229.42
350.57	229.51
350.96	229.61
351.34	229.72
351.72	229.82
352.10	229.93
352.48	230.00
352.87	230.05
353.25	230.11
353.63	230.16
354.01	230.22
354.39	230.30
354.77	230.38
355.15	230.50
355.54	230.54
355.92	230.55
356.30	230.62
356.68	230.80
357.06	230.87
357.44	230.91
357.82	230.97
358.20	231.18
358.58	231.24
358.97	231.30
359.35	231.40
359.73	231.49
360.11	231.53
360.49	231.59
360.87	231.63
361.25	231.69
361.63	231.80
362.01	231.85
362.39	231.87
362.77	231.91
363.15	231.93
363.53	231.97
363.91	232.00
364.29	232.03
364.67	231.87
365.05	231.90
365.43	231.93
365.81	231.96
366.19	231.90
366.57	231.97
366.95	231.97
367.33	231.92
367.71	231.91
368.09	231.96
368.47	231.94
368.85	231.94
369.23	231.97
369.61	231.87
369.99	231.91
370.37	231.90
370.75	232.02
371.13	231.97
371.51	231.92
371.89	231.91
372.27	231.87
372.65	231.86
373.03	231.82
373.41	231.77
373.78	231.71
374.16	231.59
374.54	231.49
374.92	231.43
375.30	231.40
375.68	231.32
376.06	231.28
376.44	231.21
376.82	231.18
377.19	231.13
377.57	231.09
377.95	230.98
378.33	230.92
378.71	230.71
379.09	230.68
379.47	230.66
379.84	230.59
380.22	230.53
380.60	230.45
380.98	230.41
381.36	230.35
381.73	230.28
382.11	230.27
382.49	230.23
382.87	230.17
383.25	230.13
383.62	230.29
384.00	230.22
384.38	230.20
384.76	230.18
385.13	230.20
385.51	230.17
385.89	230.13
386.27	230.10
386.64	230.09
387.02	230.04
387.40	229.99
387.78	229.98
388.15	229.98
388.53	229.96
388.91	229.93
389.29	229.91
389.66	229.93
390.04	229.89
390.42	229.91
390.79	229.90
391.17	229.89
391.55	229.68
391.92	229.69
392.30	229.70
392.68	229.67
393.05	229.65
393.43	229.66
393.81	229.68
394.18	229.67
394.56	229.68
394.94	229.74
395.31	229.75
395.69	229.82
396.06	229.85
396.44	229.90
396.82	229.93
397.19	230.06
397.57	230.08
397.95	230.16
398.32	230.16
398.70	230.23
399.07	230.31
399.45	230.36
399.82	230.42
400.20	230.49
400.58	230.57
400.95	230.60
401.33	230.72
401.70	230.94
402.08	231.09
402.45	231.22
402.83	231.38
403.20	231.54
403.58	231.67
403.95	231.87
404.33	232.09
404.71	232.29
405.08	232.59
405.46	232.83
405.83	233.09
406.21	233.36
406.58	233.68
406.96	234.00
407.33	234.36
407.70	234.77
408.08	235.31
408.45	235.80
408.83	236.32
409.20	236.80
409.58	237.25
409.95	237.85
410.33	238.50
410.70	239.11
411.08	239.83
411.45	240.61
411.82	241.40
412.20	242.31
412.57	243.37
412.95	244.21
413.32	245.31
413.69	246.45
414.07	247.66
414.44	248.99
414.82	250.36
415.19	251.94
415.56	253.55
415.94	255.24
416.31	257.12
416.68	259.00
417.06	261.20
417.43	263.25
417.81	265.60
418.18	268.01
418.55	270.64
418.93	273.39
419.30	276.24
419.67	279.28
420.04	282.40
420.42	285.68
420.79	289.46
421.16	293.29
421.54	297.16
421.91	301.21
422.28	305.41
422.66	309.93
423.03	314.24
423.40	318.77
423.77	323.60
424.15	328.53
424.52	333.65
424.89	339.21
425.26	344.71
425.64	349.82
426.01	355.57
426.38	361.45
426.75	367.48
427.13	373.65
427.50	380.11
427.87	386.81
428.24	393.53
428.61	399.98
428.99	406.94
429.36	414.60
429.73	421.95
430.10	429.24
430.47	436.71
430.85	444.47
431.22	452.71
431.59	461.17
431.96	469.41
432.33	478.62
432.70	487.38
433.08	497.77
433.45	507.55
433.82	517.15
434.19	527.89
434.56	538.45
434.93	548.71
435.30	558.88
435.68	570.39
436.05	581.66
436.42	592.97
436.79	603.30
437.16	614.42
437.53	626.40
437.90	638.41
438.27	650.11
438.64	662.65
439.01	674.10
439.38	684.69
439.75	694.88
440.13	706.44
440.50	717.47
440.87	726.21
441.24	735.85
441.61	746.42
441.98	754.18
442.35	763.36
442.72	772.77
443.09	781.80
443.46	787.76
443.83	792.19
444.20	795.75
444.57	801.02
444.94	804.25
445.31	807.44
445.68	810.12
446.05	812.12
446.42	811.80
446.79	811.24
447.16	810.71
447.53	810.36
447.90	806.93
448.27	803.50
448.64	798.29
449.01	794.73
449.37	787.40
449.74	780.80
450.11	772.24
450.48	762.79
450.85	753.22
451.22	744.86
451.59	736.77
451.96	729.57
452.33	719.13
452.70	709.71
453.07	698.33
453.43	687.03
453.80	676.02
454.17	665.52
454.54	655.71
454.91	644.65
455.28	634.14
455.65	624.21
456.02	613.83
456.38	605.43
456.75	594.61
457.12	585.88
457.49	577.06
457.86	568.78
458.23	561.51
458.59	553.47
458.96	545.28
459.33	538.08
459.70	530.75
460.07	525.03
460.43	518.36
460.80	512.13
461.17	506.65
461.54	500.82
461.91	495.31
462.27	489.75
462.64	485.20
463.01	480.02
463.38	474.85
463.74	470.13
464.11	465.98
464.48	462.25
464.85	458.19
465.21	455.06
465.58	451.59
465.95	447.65
466.32	444.49
466.68	441.37
467.05	438.24
467.42	435.18
467.78	431.93
468.15	428.96
468.52	426.77
468.88	423.93
469.25	421.30
469.62	419.23
469.98	416.94
470.35	414.89
470.72	413.05
471.08	411.16
471.45	409.57
471.82	407.79
472.18	405.94
472.55	404.73
472.92	403.25
473.28	402.08
473.65	400.84
474.02	399.69
474.38	398.71
474.75	398.12
475.11	397.28
475.48	396.91
475.85	396.51
476.21	396.27
476.58	396.13
476.94	396.34
477.31	396.39
477.67	396.53
478.04	396.83
478.41	397.23
478.77	397.84
479.14	398.21
479.50	398.98
479.87	399.94
480.23	400.92
480.60	401.86
480.96	402.80
481.33	404.19
481.69	405.57
482.06	406.95
482.42	408.25
482.79	409.82
483.15	411.66
483.52	413.76
483.88	415.78
484.25	417.92
484.61	420.14
484.98	422.51
485.34	425.19
485.71	428.00
486.07	431.01
486.44	433.92
486.80	437.22
487.17	440.60
487.53	444.30
487.90	448.14
488.26	452.36
488.62	456.78
488.99	461.25
489.35	465.95
489.72	471.01
490.08	476.32
490.44	481.73
490.81	487.31
491.17	493.03
491.54	499.12
491.90	505.37
492.26	512.02
492.63	519.00
492.99	526.23
493.36	533.71
493.72	541.61
494.08	549.66
494.45	558.12
494.81	566.96
495.17	576.01
495.54	585.56
495.90	595.51
496.26	605.73
496.63	616.15
496.99	626.96
497.35	638.19
497.72	649.77
498.08	661.80
498.44	674.12
498.80	687.19
499.17	700.61
499.53	714.43
499.89	728.63
500.26	742.92
500.62	757.55
500.98	772.83
501.34	788.26
501.71	804.43
502.07	820.87
502.43	837.77
502.79	854.78
503.16	872.29
503.52	890.01
503.88	908.22
504.24	926.87
504.60	945.78
504.97	965.10
505.33	984.86
505.69	1005.58
506.05	1026.33
506.41	1047.05
506.78	1068.05
507.14	1089.87
507.50	1112.11
507.86	1134.84
508.22	1157.63
508.59	1180.25
508.95	1203.75
509.31	1227.67
509.67	1252.27
510.03	1276.66
510.39	1301.45
510.75	1326.25
511.12	1351.15
511.48	1376.03
511.84	1400.99
512.20	1426.40
512.56	1452.21
512.92	1477.88
513.28	1503.25
513.64	1528.91
514.00	1554.62
514.37	1580.49
514.73	1606.09
515.09	1631.27
515.45	1656.66
515.81	1682.14
516.17	1707.76
516.53	1732.63
516.89	1757.45
517.25	1782.35
517.61	1807.16
517.97	1832.13
518.33	1856.62
518.69	1881.01
519.05	1905.61
519.41	1930.12
519.77	1954.56
520.13	1978.73
520.49	2002.64
520.85	2026.63
521.21	2050.49
521.57	2074.41
521.93	2097.35
522.29	2120.72
522.65	2143.61
523.01	2166.30
523.37	2188.16
523.73	2210.37
524.09	2232.75
524.45	2255.14
524.81	2276.55
525.17	2297.83
525.53	2318.42
525.89	2339.37
526.25	2359.85
526.61	2379.13
526.97	2398.67
527.33	2417.60
527.68	2435.68
528.04	2453.13
528.40	2469.53
528.76	2486.47
529.12	2502.37
529.48	2518.67
529.84	2533.70
530.20	2549.71
530.56	2564.54
530.91	2579.38
531.27	2593.25
531.63	2606.20
531.99	2618.89
532.35	2630.01
532.71	2641.12
533.07	2652.50
533.42	2662.44
533.78	2673.10
534.14	2683.90
534.50	2693.25
534.86	2702.79
535.21	2710.41
535.57	2718.33
535.93	2726.59
536.29	2733.60
536.65	2740.75
537.00	2745.82
537.36	2751.36
537.72	2755.22
538.08	2758.86
538.44	2761.58
538.79	2764.64
539.15	2767.01
539.51	2768.77
539.87	2771.19
540.22	2771.59
540.58	2772.54
540.94	2772.93
541.29	2771.97
541.65	2769.53
542.01	2767.21
542.37	2763.82
542.72	2762.19
543.08	2759.11
543.44	2755.79
543.79	2750.77
544.15	2745.67
544.51	2741.28
544.87	2734.96
545.22	2728.08
545.58	2721.54
545.94	2715.76
546.29	2708.08
546.65	2699.86
547.01	2691.63
547.36	2683.01
547.72	2674.39
548.07	2664.52
548.43	2654.48
548.79	2643.38
549.14	2633.38
549.50	2623.09
549.86	2612.32
550.21	2599.68
550.57	2588.29
550.92	2575.28
551.28	2563.02
551.64	2550.98
551.99	2538.94
552.35	2526.96
552.70	2514.78
553.06	2502.81
553.41	2489.63
553.77	2476.33
554.13	2463.21
554.48	2449.31
554.84	2434.99
555.19	2421.60
555.55	2407.38
555.90	2393.33
556.26	2380.21
556.61	2366.35
556.97	2351.58
557.32	2337.15
557.68	2322.89
558.03	2308.16
558.39	2294.13
558.74	2280.27
559.10	2264.47
559.45	2249.26
559.81	2234.68
560.16	2219.82
560.52	2204.64
560.87	2190.33
561.23	2175.47
561.58	2160.89
561.94	2145.61
562.29	2130.59
562.64	2115.32
563.00	2100.27
563.35	2085.86
563.71	2071.16
564.06	2056.16
564.42	2041.73
564.77	2027.27
565.12	2013.26
565.48	1999.03
565.83	1984.56
566.19	1970.21
566.54	1956.31
566.89	1941.22
567.25	1925.70
567.60	1911.45
567.96	1896.58
568.31	1881.15
568.66	1866.61
569.02	1852.06
569.37	1837.79
569.72	1823.61
570.08	1809.47
570.43	1795.19
570.78	1780.11
571.14	1765.06
571.49	1750.37
571.84	1736.42
572.20	1721.24
572.55	1706.29
572.90	1690.88
573.26	1675.47
573.61	1659.85
573.96	1644.87
574.31	1630.50
574.67	1616.59
575.02	1601.73
575.37	1586.66
575.72	1571.52
576.08	1556.76
576.43	1542.05
576.78	1527.38
577.13	1512.88
577.49	1498.26
577.84	1483.66
578.19	1469.30
578.54	1454.97
578.90	1440.53
579.25	1425.61
579.60	1411.83
579.95	1397.97
580.30	1384.34
580.66	1370.79
581.01	1357.39
581.36	1343.81
581.71	1330.20
582.06	1316.64
582.42	1303.26
582.77	1290.29
583.12	1277.53
583.47	1264.60
583.82	1251.86
584.17	1239.07
584.53	1226.37
584.88	1214.05
585.23	1201.51
585.58	1189.21
585.93	1176.99
586.28	1165.32
586.63	1153.55
586.98	1141.68
587.34	1130.14
587.69	1118.41
588.04	1107.01
588.39	1095.76
588.74	1084.41
589.09	1073.45
589.44	1061.95
589.79	1051.05
590.14	1040.25
590.49	1029.61
590.84	1019.25
591.19	1008.89
591.54	998.57
591.89	988.03
592.25	977.54
592.60	967.08
592.95	956.83
593.30	946.65
593.65	936.40
594.00	926.41
594.35	917.10
594.70	907.32
595.05	898.22
595.40	888.91
595.75	879.44
596.10	870.46
596.45	861.33
596.80	852.66
597.15	843.97
597.50	835.28
597.85	826.91
598.19	818.48
598.54	810.09
598.89	801.90
599.24	794.07
599.59	786.38
599.94	779.11
600.29	771.67
600.64	764.26
600.99	756.87
601.34	749.72
601.69	741.96
602.04	734.82
602.39	727.76
602.74	720.89
603.08	714.16
603.43	707.46
603.78	700.84
604.13	694.36
604.48	687.87
604.83	681.61
605.18	675.33
605.53	669.15
605.87	662.87
606.22	656.85
606.57	650.78
606.92	644.59
607.27	638.59
607.62	632.91
607.96	627.34
608.31	622.03
608.66	616.56
609.01	611.38
609.36	606.42
609.70	601.32
610.05	596.21
610.40	591.22
610.75	586.16
611.10	581.44
611.44	576.64
611.79	571.92
612.14	567.21
612.49	562.50
612.83	558.01
613.18	553.73
613.53	549.47
613.88	545.23
614.22	541.22
614.57	537.10
614.92	532.99
615.27	529.04
615.61	525.10
615.96	521.30
616.31	517.45
616.65	513.57
617.00	509.85
617.35	506.23
617.70	502.69
618.04	499.28
618.39	495.78
618.74	492.47
619.08	489.09
619.43	485.80
619.78	482.62
620.12	479.47
620.47	476.49
620.82	473.49
621.16	470.56
621.51	467.73
621.85	464.96
622.20	462.26
622.55	459.53
622.89	456.84
623.24	454.29
623.59	451.79
623.93	449.34
624.28	446.98
624.62	444.82
624.97	442.63
625.32	440.33
625.66	438.00
626.01	435.74
626.35	433.64
626.70	431.48
627.04	429.53
627.39	427.46
627.73	425.41
628.08	423.47
628.43	421.62
628.77	419.71
629.12	417.90
629.46	416.07
629.81	414.36
630.15	412.58
630.50	410.82
630.84	409.13
631.19	407.54
631.53	405.95
631.88	404.19
632.22	402.50
632.57	401.13
632.91	399.79
633.26	398.47
633.60	397.07
633.95	395.78
634.29	394.33
634.64	392.99
634.98	391.53
635.32	390.23
635.67	388.98
636.01	387.76
636.36	386.56
636.70	385.49
637.05	384.28
637.39	383.18
637.73	382.09
638.08	381.04
638.42	379.97
638.77	378.83
639.11	377.68
639.45	376.60
639.80	375.46
640.14	374.35
640.49	373.21
640.83	372.16
641.17	371.08
641.52	370.05
641.86	369.07
642.20	368.24
642.55	367.21
642.89	366.21
643.23	365.23
643.58	364.37
643.92	363.37
644.26	362.45
644.61	361.58
644.95	360.68
645.29	359.77
645.64	358.81
645.98	357.92
646.32	357.12
646.66	356.26
647.01	355.40
647.35	354.62
647.69	353.82
648.04	353.04
648.38	352.24
648.72	351.51
649.06	350.75
649.41	349.96
649.75	349.22
650.09	348.52
650.43	347.82
650.78	347.05
651.12	346.31
651.46	345.61
651.80	344.91
652.14	344.21
652.49	343.54
652.83	342.86
653.17	342.18
653.51	341.51
653.85	340.92
654.20	340.31
654.54	339.60
654.88	338.94
655.22	338.31
655.56	337.62
655.90	336.94
656.25	336.28
656.59	335.64
656.93	335.07
657.27	334.51
657.61	333.86
657.95	333.28
658.29	332.71
658.64	332.21
658.98	331.62
659.32	331.02
659.66	330.45
660.00	329.92
660.34	329.36
660.68	328.79
661.02	328.18
661.36	327.58
661.70	327.02
662.05	326.49
662.39	325.99
662.73	325.58
663.07	325.17
663.41	324.70
663.75	324.17
664.09	323.63
664.43	323.03
664.77	322.54
665.11	321.95
665.45	321.40
665.79	320.83
666.13	320.28
666.47	319.74
666.81	319.18
667.15	318.57
667.49	318.10
667.83	317.67
668.17	317.21
668.51	316.76
668.85	316.34
669.19	315.96
669.53	315.42
669.87	314.91
670.21	314.42
670.55	313.95
670.89	313.61
671.23	313.17
671.57	312.75
671.91	312.37
672.25	312.00
672.58	311.64
672.92	311.20
673.26	310.82
673.60	310.43
673.94	310.05
674.28	309.69
674.62	309.30
674.96	308.84
675.30	308.42
675.64	308.00
675.97	307.56
676.31	307.06
676.65	306.63
676.99	306.27
677.33	305.79
677.67	305.34
678.01	304.79
678.34	304.35
678.68	303.94
679.02	303.46
679.36	303.01
679.70	302.53
680.04	302.10
680.37	301.65
680.71	301.21
681.05	300.79
681.39	300.35
681.73	299.87
682.06	299.41
682.40	298.97
682.74	298.58
683.08	298.22
683.42	297.80
683.75	297.40
684.09	296.89
684.43	296.45
684.77	296.00
685.10	295.61
685.44	295.22
685.78	294.80
686.12	294.39
686.45	293.95
686.79	293.50
687.13	293.08
687.46	292.64
687.80	292.23
688.14	291.74
688.48	291.30
688.81	290.89
689.15	290.53
689.49	290.08
689.82	289.63
690.16	289.10
690.50	288.67
690.83	288.23
691.17	287.76
691.51	287.34
691.84	286.96
692.18	286.53
692.52	286.06
692.85	285.63
693.19	285.26
693.52	284.87
693.86	284.46
694.20	284.04
694.53	283.63
694.87	283.17
695.21	282.76
695.54	282.34
695.88	281.88
696.21	281.38
696.55	280.96
696.88	280.53
697.22	280.12
697.56	279.71
697.89	279.25
698.23	278.86
698.56	278.41
698.90	278.01
699.23	277.56
699.57	277.15
699.90	276.71
700.24	276.23
700.58	275.83
700.91	275.47
701.25	275.23
701.58	274.91
701.92	274.59
702.25	274.23
702.59	273.85
702.92	273.48
703.26	273.11
703.59	272.72
703.93	272.47
704.26	272.11
704.60	271.72
704.93	271.32
705.26	270.93
705.60	270.60
705.93	270.15
706.27	269.83
706.60	269.51
706.94	269.19
707.27	268.79
707.61	268.41
707.94	268.00
708.27	267.46
708.61	267.01
708.94	266.60
709.28	266.24
709.61	265.86
709.94	265.54
710.28	265.20
710.61	264.90
710.95	264.43
711.28	264.21
711.61	263.88
711.95	263.61
712.28	263.27
712.61	262.91
712.95	262.70
713.28	262.44
713.61	262.09
713.95	261.74
714.28	261.46
714.61	261.13
714.95	260.82
715.28	260.52
715.61	260.23
715.95	259.96
716.28	259.65
716.61	259.37
716.95	259.05
717.28	258.75
717.61	258.43
717.94	258.14
718.28	257.73
718.61	257.43
718.94	257.12
719.27	256.85
719.61	256.62
719.94	256.32
720.27	255.96
720.60	255.69
720.94	255.43
721.27	255.19
721.60	254.97
721.93	254.70
722.27	254.52
722.60	254.29
722.93	254.02
723.26	253.79
723.59	253.54
723.93	253.34
724.26	253.12
724.59	252.89
724.92	252.68
725.25	252.52
725.59	252.31
725.92	252.14
726.25	251.91
726.58	251.69
726.91	251.45
727.24	251.26
727.57	251.03
727.91	250.79
728.24	250.61
728.57	250.38
728.90	250.21
729.23	249.95
729.56	249.84
729.89	249.65
730.22	249.45
730.55	249.25
730.89	249.05
731.22	248.85
731.55	248.65
731.88	248.46
732.21	248.23
732.54	248.03
732.87	247.83
733.20	247.67
733.53	247.48
733.86	247.33
734.19	247.15
734.52	247.02
734.85	246.96
735.18	246.76
735.51	246.66
735.84	246.50
736.17	246.38
736.50	246.11
736.83	246.14
737.16	245.97
737.49	245.82
737.82	245.65
738.15	245.51
738.48	245.36
738.81	245.20
739.14	245.03
739.47	244.86
739.80	244.70
740.13	244.56
740.46	244.39
740.79	244.21
741.12	244.05
741.45	243.88
741.78	243.64
742.11	243.55
742.44	243.35
742.77	243.21
743.10	243.04
743.43	242.89
743.75	242.58
744.08	242.72
744.41	242.56
744.74	242.41
745.07	242.23
745.40	242.13
745.73	242.07
746.06	241.94
746.39	241.83
746.71	241.69
747.04	241.55
747.37	241.42
747.70	241.31
748.03	241.19
748.36	241.09
748.68	240.96
749.01	240.79
749.34	240.68
749.67	240.57
750.00	240.48
750.33	240.49
750.65	240.38
750.98	240.01
751.31	239.91
751.64	239.82
751.97	239.82
752.29	239.70
752.62	239.49
752.95	239.37
753.28	239.23
753.60	239.11
753.93	239.04
754.26	238.96
754.59	238.79
754.91	238.67
755.24	238.54
755.57	238.50
755.90	238.38
756.22	238.25
756.55	238.11
756.88	237.96
757.20	237.75
757.53	237.60
757.86	237.50
758.19	237.41
758.51	237.30
758.84	237.10
759.17	236.99
759.49	236.91
759.82	236.91
760.15	236.84
760.47	236.76
760.80	236.62
761.13	236.54
761.45	236.48
761.78	236.40
762.11	236.32
762.43	236.14
762.76	236.08
763.08	236.02
763.41	235.97
763.74	235.90
764.06	235.82
764.39	235.75
764.71	235.67
765.04	235.58
765.37	235.50
765.69	235.42
766.02	235.34
766.34	235.27
766.67	235.11
767.00	235.07
767.32	235.09
767.65	235.14
767.97	235.06
768.30	235.00
768.62	234.94
768.95	234.86
769.27	234.80
769.60	234.75
769.92	234.64
770.25	234.54
770.57	234.46
770.90	234.40
771.22	234.34
771.55	234.28
771.87	234.23
772.20	234.17
772.52	234.28
772.85	234.44
773.17	234.39
773.50	234.33
773.82	234.25
774.15	234.11
774.47	233.95
774.80	233.88
775.12	233.83
775.45	233.78
775.77	233.76
776.09	233.72
776.42	233.69
776.74	233.70
777.07	233.66
777.39	233.63
777.72	233.57
778.04	233.54
778.36	233.49
778.69	233.45
779.01	233.42
779.33	233.21
779.66	232.97
779.98	232.92
780.31	232.90
780.63	232.94
780.95	232.94
781.28	232.90
781.60	232.85
781.92	232.82
782.25	232.78
782.57	232.73
782.89	232.68
783.22	232.62
783.54	232.56
783.86	232.54
784.19	232.50
784.51	232.51
784.83	232.46
785.16	232.43
785.48	232.40
785.80	232.37
786.12	232.38
786.45	232.35
786.77	232.34
787.09	232.30
787.42	232.20
787.74	232.16
788.06	232.15
788.38	232.12
788.71	232.08
789.03	232.05
789.35	232.05
789.67	232.01
789.99	232.00
790.32	231.95
790.64	231.94
790.96	232.09
791.28	232.01
791.61	231.99
791.93	231.97
792.25	231.94
792.57	232.04
792.89	231.98
793.21	231.96
793.54	231.92
793.86	231.87
794.18	231.85
794.50	231.79
794.82	231.76
795.14	231.76
795.47	231.77
795.79	231.76
796.11	231.70
796.43	231.68
796.75	231.65
797.07	231.64
797.39	231.60
797.71	231.42
798.04	231.41
798.36	231.40
798.68	231.37
799.00	231.35
799.32	231.24
799.64	231.24
799.96	231.22
800.28	231.23
800.60	231.21
800.92	231.21
801.24	231.19
801.56	231.18
801.89	231.14
802.21	231.12
802.53	231.08
802.85	231.10
803.17	231.17
803.49	231.13
803.81	231.10
804.13	231.07
804.45	231.04
804.77	231.04
805.09	231.02
805.41	230.99
805.73	230.94
806.05	230.89
806.37	230.85
806.69	230.82
807.01	230.78
807.33	230.78
807.65	230.70
807.97	230.77
808.28	230.74
808.60	230.73
808.92	230.69
809.24	230.79
809.56	230.73
809.88	230.64
810.20	230.64
810.52	230.65
810.84	230.62
811.16	230.58
811.48	230.55
811.80	230.61
812.12	230.58
812.43	230.61
812.75	230.60
813.07	230.58
813.39	230.58
813.71	230.54
814.03	230.52
814.35	230.52
814.67	230.42
814.98	230.40
815.30	230.37
815.62	230.34
815.94	230.20
816.26	230.21
816.58	230.18
816.89	230.19
817.21	230.14
817.53	230.14
817.85	230.14
818.17	230.13
818.48	230.04
818.80	230.08
819.12	230.04
819.44	230.02
819.76	229.99
820.07	229.99
820.39	229.98
820.71	229.99
821.03	229.97
821.34	229.96
821.66	229.98
821.98	229.99
822.30	229.98
822.61	230.08
822.93	230.05
823.25	230.05
823.57	230.01
823.88	230.02
824.20	230.02
824.52	230.03
824.83	230.02
825.15	229.99
825.47	229.95
825.79	229.95
826.10	229.93
826.42	229.92
826.74	229.91
827.05	229.91
827.37	229.90
827.69	229.89
828.00	229.89
828.32	229.87
828.64	229.83
828.95	229.91
829.27	229.86
829.58	229.85
829.90	229.88
830.22	229.87
830.53	229.83
830.85	229.81
831.17	229.76
831.48	229.76
831.80	229.77
832.11	229.76
832.43	229.72
832.75	229.73
833.06	229.84
833.38	229.78
833.69	229.76
834.01	229.77
834.32	229.74
834.64	229.71
834.96	229.71
835.27	229.72
835.59	229.65
835.90	229.62
836.22	229.62
836.53	229.57
836.85	229.55
837.16	229.72
837.48	229.73
837.79	229.78
838.11	229.78
838.42	229.77
838.74	229.78
839.05	229.77
839.37	229.76
839.68	229.64
840.00	229.63
840.31	229.66
840.63	229.63
840.94	229.63
841.26	229.61
841.57	229.60
841.88	229.60
842.20	229.59
842.51	229.55
842.83	229.53
843.14	229.68
843.46	229.67
843.77	229.57
844.08	229.55
844.40	229.49
844.71	229.48
845.03	229.45
845.34	229.42
845.65	229.43
845.97	229.43
846.28	229.44
846.60	229.45
846.91	229.40
847.22	229.39
847.54	229.42
847.85	229.43
848.16	229.42
848.48	229.39
848.79	229.45
849.10	229.46
849.42	229.47
849.73	229.31
850.04	229.30
850.36	229.22
850.67	229.26
850.98	229.26
851.30	229.27
851.61	229.26
851.92	229.26
852.23	229.31
852.55	229.32
852.86	229.30
853.17	229.31
853.49	229.35
853.80	229.38
854.11	229.39
854.42	229.41
854.74	229.38
855.05	229.39
855.36	229.29
855.67	229.30
855.99	229.29
856.30	229.49
856.61	229.49
856.92	229.50
857.23	229.50
857.55	229.47
857.86	229.45
858.17	229.49
858.48	229.46
858.79	229.42
859.11	229.41
859.42	229.41
859.73	229.39
860.04	229.37
860.35	229.32
860.66	229.25
860.98	229.24
861.29	229.27
861.60	229.26
861.91	229.30
862.22	229.27
862.53	229.24
862.84	229.04
863.16	229.07
863.47	229.04
863.78	229.02
864.09	229.03
864.40	229.04
864.71	229.04
865.02	229.07
865.33	229.05
865.64	229.02
865.95	229.02
866.27	229.12
866.58	229.10
866.89	229.12
867.20	229.13
867.51	229.10
867.82	229.09
868.13	229.14
868.44	229.10
868.75	229.12
869.06	229.12
869.37	229.14
869.68	229.09
869.99	229.12
870.30	229.12
870.61	229.14
870.92	229.11
871.23	229.08
871.54	229.11
871.85	229.14
872.16	229.16
872.47	229.15
872.78	229.05
873.09	229.07
873.40	229.06
873.71	229.07
874.02	229.08
874.33	229.07
874.64	229.03
874.95	229.06
875.26	229.04
875.56	229.04
875.87	229.03
876.18	229.04
876.49	229.21
876.80	229.20
877.11	229.17
877.42	229.18
877.73	229.19
878.04	229.16
878.35	229.16
878.66	229.16
878.96	229.16
879.27	229.16
879.58	229.15
879.89	229.14
880.20	229.19
880.51	229.18
880.82	229.18
881.12	229.19
881.43	229.16
881.74	229.14
882.05	229.12
882.36	229.13
882.67	229.14
882.97	228.95
883.28	228.93
883.59	228.93
883.90	228.94
884.21	228.96
884.51	228.94
884.82	228.91
885.13	228.91
885.44	228.90
885.74	228.89
886.05	228.88
886.36	228.88
886.67	228.81
886.98	228.90
887.28	228.92
887.59	228.91
887.90	228.91
888.20	228.91
888.51	228.95
888.82	228.91
889.13	228.91
889.43	229.05
889.74	229.04
890.05	229.03
890.35	229.01
890.66	228.99
890.97	228.98
891.28	228.97
891.58	228.97
891.89	228.98
892.20	228.97
892.50	228.96
892.81	228.94
893.12	228.94
893.42	228.85
893.73	228.86
894.04	228.86
894.34	228.88
894.65	228.87
894.95	228.85
895.26	228.86
895.57	228.93
895.87	228.75
896.18	228.78
896.48	228.80
896.79	228.80
897.10	228.83
897.40	228.84
897.71	228.85
898.01	228.83
898.32	228.85
898.63	228.84
898.93	228.85
899.24	228.87
899.54	228.86
899.85	228.85
900.15	228.84
900.46	228.83
900.76	228.83
901.07	228.84
901.38	228.83
901.68	228.85
901.99	228.76
902.29	228.77
902.60	228.76
902.90	228.74
903.21	228.73
903.51	228.71
903.82	228.75
904.12	228.75
904.43	228.76
904.73	228.76
905.03	228.76
905.34	228.93
905.64	228.92
905.95	228.92
906.25	228.93
906.56	228.92
906.86	228.91
907.17	228.90
907.47	228.90
907.77	228.89
908.08	228.86
908.38	228.88
908.69	228.90
908.99	228.92
909.30	228.94
909.60	228.94
909.90	228.93
910.21	228.88
910.51	228.85
910.81	228.85
911.12	228.85
911.42	228.86
911.73	228.69
912.03	228.69
912.33	228.73
912.64	228.71
912.94	228.71
913.24	228.69
913.55	228.69
913.85	228.67
914.15	228.71
914.46	228.74
914.76	228.73
915.06	228.72
915.37	228.68
915.67	228.67
915.97	228.67
916.27	228.65
916.58	228.66
916.88	228.67
917.18	228.65
917.49	228.77
917.79	228.75
918.09	228.77
918.39	228.81
918.70	228.78
919.00	228.79
919.30	228.88
919.60	228.87
919.91	228.84
920.21	228.85
920.51	228.81
920.81	228.80
921.12	228.83
921.42	228.82
921.72	228.83
922.02	228.84
922.32	228.87
922.63	228.87
922.93	228.96
923.23	228.97
923.53	228.96
923.83	228.82
924.13	228.83
924.44	228.83
924.74	228.86
925.04	228.89
925.34	228.89
925.64	228.82
925.94	228.82
926.24	228.93
926.55	228.92
926.85	228.93
927.15	228.93
927.45	228.92
927.75	228.92
928.05	228.92
928.35	228.91
928.65	228.93
928.95	228.95
929.26	228.86
929.56	228.88
929.86	228.90
930.16	228.90
930.46	228.90
930.76	228.90
931.06	228.81
931.36	228.76
931.66	228.79
931.96	228.81
932.26	228.82
932.56	228.74
932.86	228.75
933.16	228.75
933.46	228.72
933.76	228.69
934.06	228.73
934.36	228.78
934.66	228.78
934.96	228.75
935.26	228.74
935.56	228.78
935.86	228.74
936.16	228.72
936.46	228.71
936.76	228.70
937.06	228.68
937.36	228.70
937.66	228.70
937.96	228.69
938.26	228.65
938.56	228.61
938.86	228.63
939.16	228.66
939.46	228.67
939.76	228.69
940.06	228.70
940.35	228.66
940.65	228.58
940.95	228.59
941.25	228.54
941.55	228.53
941.85	228.51
942.15	228.56
942.45	228.60
942.75	228.60
943.04	228.59
943.34	228.62
943.64	228.61
943.94	228.59
944.24	228.59
944.54	228.60
944.84	228.61
945.13	228.58
945.43	228.55
945.73	228.54
946.03	228.52
946.33	228.51
946.62	228.49
946.92	228.49
947.22	228.50
947.52	228.53
947.82	228.55
948.11	228.52
948.41	228.47
948.71	228.42
949.01	228.43
949.31	228.44
949.60	228.42
949.90	228.45
950.20	228.44
950.50	228.43
950.79	228.42
951.09	228.45
951.39	228.44
951.69	228.43
951.98	228.48
952.28	228.48
952.58	228.48
952.87	228.49
953.17	228.51
953.47	228.49
953.76	228.48
954.06	228.44
954.36	228.44
954.66	228.44
954.95	228.50
955.25	228.50
955.55	228.51
955.84	228.48
956.14	228.48
956.44	228.50
956.73	228.48
957.03	228.50
957.32	228.49
957.62	228.49
957.92	228.53
958.21	228.50
958.51	228.71
958.81	228.73
959.10	228.74
959.40	228.78
959.69	228.79
959.99	228.83
960.29	228.84
960.58	228.84
960.88	228.90
961.17	228.88
961.47	228.89
961.76	228.88
962.06	228.92
962.36	228.90
962.65	228.92
962.95	228.93
963.24	228.91
963.54	228.91
963.83	228.94
964.13	228.91
964.42	228.91
964.72	228.75
965.01	228.76
965.31	228.76
965.60	228.71
965.90	228.83
966.19	228.78
966.49	228.79
966.78	228.79
967.08	228.77
967.37	228.78
967.67	228.75
967.96	228.78
968.26	228.77
968.55	228.80
968.85	228.78
969.14	228.78
969.43	228.78
969.73	228.76
970.02	228.74
970.32	228.74
970.61	228.72
970.91	228.68
971.20	228.66
971.49	228.63
971.79	228.66
972.08	228.53
972.38	228.54
972.67	228.52
972.96	228.55
973.26	228.51
973.55	228.56
973.85	228.55
974.14	228.53
974.43	228.54
974.73	228.49
975.02	228.49
975.31	228.49
975.61	228.48
975.90	228.48
976.19	228.46
976.49	228.47
976.78	228.48
977.07	228.47
977.37	228.48
977.66	228.51
977.95	228.49
978.24	228.51
978.54	228.54
978.83	228.53
979.12	228.52
979.42	228.51
979.71	228.48
980.00	228.49
980.29	228.50
980.59	228.46
980.88	228.51
981.17	228.50
981.46	228.51
981.76	228.52
982.05	228.57
982.34	228.58
982.63	228.59
982.93	228.59
983.22	228.63
983.51	228.63
983.80	228.65
984.09	228.67
984.39	228.67
984.68	228.64
984.97	228.66
985.26	228.65
985.55	228.66
985.85	228.61
986.14	228.63
986.43	228.65
986.72	228.65
987.01	228.59
987.30	228.59
987.59	228.57
987.89	228.57
988.18	228.52
988.47	228.50
988.76	228.49
989.05	228.48
989.34	228.45
989.63	228.49
989.92	228.47
990.22	228.43
990.51	228.43
990.80	228.41
991.09	228.43
991.38	228.44
991.67	228.43
991.96	228.43
992.25	228.43
992.54	228.40
992.83	228.40
993.12	228.40
993.41	228.44
993.70	228.51
993.99	228.54
994.28	228.56
994.58	228.59
994.87	228.57
995.16	228.58
995.45	228.57
995.74	228.51
996.03	228.53
996.32	228.55
996.61	228.58
996.90	228.60
997.19	228.59
997.48	228.60
997.77	228.58
998.06	228.60
998.34	228.59
998.63	228.60
998.92	228.59
999.21	228.62
999.50	228.60
999.79	228.54
1000.08	228.52
1000.37	228.53
1000.66	228.50
1000.95	228.53
1001.24	228.54
1001.53	228.57
1001.82	228.57
1002.11	228.54
1002.40	228.56
1002.68	228.60
1002.97	228.72
1003.26	228.70
1003.55	228.67
1003.84	228.69
1004.13	228.73
1004.42	228.72
1004.71	228.72
1004.99	228.72
1005.28	228.76
1005.57	228.76
1005.86	228.74
1006.15	228.74
1006.44	228.71
1006.72	228.74
1007.01	228.71
1007.30	228.72
1007.59	228.69
1007.88	228.68
1008.17	228.69
1008.45	228.65
1008.74	228.56
1009.03	228.49
1009.32	228.47
1009.60	228.47
1009.89	228.46
1010.18	228.39
1010.47	228.38
1010.76	228.39
1011.04	228.38
1011.33	228.38
1011.62	228.38
1011.91	228.40
1012.19	228.40
1012.48	228.39
1012.77	228.39
1013.05	228.45
1013.34	228.44
1013.63	228.43
1013.92	228.44
1014.20	228.42
1014.49	228.44
1014.78	228.47
1015.06	228.41
1015.35	228.41
1015.64	228.43
1015.92	228.45
1016.21	228.46
1016.50	228.46
1016.78	228.47
1017.07	228.48
1017.36	228.45
1017.64	228.42
1017.93	228.44
1018.22	228.44
1018.50	228.44
1018.79	228.43
1019.08	228.36
1019.36	228.38
1019.65	228.37
1019.93	228.42
1020.22	228.45
1020.51	228.53
1020.79	228.51
1021.08	228.37
1021.36	228.11
1021.65	228.34
1021.94	228.20
1022.22	228.65
1022.51	228.22
1022.79	229.38
1023.08	228.63
1023.36	230.41
1023.65	228.15
>>>>>End Processed Spectral Data<<<<<
