SpectraSuite Data File
++++++++++++++++++++++++++++++++++++
Date: Tue Oct 06 15:50:20 EDT 2015
User: lab3
Dark Spectrum Present: No
Reference Spectrum Present: No
Number of Sampled Component Spectra: 1
Spectrometers: USB2E7196
Integration Time (usec): 66000 (USB2E7196)
Spectra Averaged: 1000 (USB2E7196)
Boxcar Smoothing: 10 (USB2E7196)
Correct for Electrical Dark: No (USB2E7196)
Strobe/Lamp Enabled: No (USB2E7196)
Correct for Detector Non-linearity: No (USB2E7196)
Correct for Stray Light: No (USB2E7196)
Number of Pixels in Processed Spectrum: 2048
>>>>>Begin Processed Spectral Data<<<<<
339.09	0.00
339.48	215.93
339.86	217.18
340.24	218.40
340.63	219.82
341.01	224.03
341.39	222.83
341.78	224.00
342.16	225.47
342.54	225.94
342.93	214.17
343.31	224.98
343.69	225.50
344.07	225.97
344.46	226.42
344.84	226.83
345.22	227.02
345.60	227.29
345.99	227.50
346.37	227.65
346.75	227.75
347.13	227.84
347.52	227.93
347.90	228.05
348.28	228.09
348.66	228.16
349.05	228.14
349.43	228.22
349.81	228.29
350.19	228.35
350.57	228.44
350.96	228.55
351.34	228.66
351.72	228.78
352.10	228.89
352.48	228.96
352.87	229.01
353.25	229.08
353.63	229.13
354.01	229.19
354.39	229.27
354.77	229.34
355.15	229.46
355.54	229.50
355.92	229.52
356.30	229.60
356.68	229.79
357.06	229.87
357.44	229.91
357.82	229.98
358.20	230.20
358.58	230.25
358.97	230.32
359.35	230.42
359.73	230.51
360.11	230.56
360.49	230.64
360.87	230.69
361.25	230.79
361.63	230.91
362.01	230.97
362.39	231.00
362.77	231.06
363.15	231.09
363.53	231.13
363.91	231.18
364.29	231.21
364.67	231.06
365.05	231.10
365.43	231.15
365.81	231.19
366.19	231.13
366.57	231.21
366.95	231.21
367.33	231.17
367.71	231.17
368.09	231.21
368.47	231.20
368.85	231.20
369.23	231.21
369.61	231.13
369.99	231.16
370.37	231.16
370.75	231.27
371.13	231.24
371.51	231.20
371.89	231.19
372.27	231.17
372.65	231.16
373.03	231.12
373.41	231.07
373.78	231.02
374.16	230.90
374.54	230.81
374.92	230.75
375.30	230.72
375.68	230.64
376.06	230.59
376.44	230.53
376.82	230.49
377.19	230.44
377.57	230.40
377.95	230.28
378.33	230.21
378.71	230.01
379.09	229.96
379.47	229.93
379.84	229.86
380.22	229.80
380.60	229.71
380.98	229.67
381.36	229.62
381.73	229.55
382.11	229.54
382.49	229.50
382.87	229.45
383.25	229.40
383.62	229.58
384.00	229.51
384.38	229.47
384.76	229.48
385.13	229.49
385.51	229.45
385.89	229.40
386.27	229.39
386.64	229.40
387.02	229.35
387.40	229.30
387.78	229.28
388.15	229.27
388.53	229.24
388.91	229.21
389.29	229.17
389.66	229.18
390.04	229.12
390.42	229.13
390.79	229.12
391.17	229.10
391.55	228.89
391.92	228.88
392.30	228.90
392.68	228.85
393.05	228.83
393.43	228.83
393.81	228.85
394.18	228.82
394.56	228.83
394.94	228.87
395.31	228.87
395.69	228.94
396.06	228.98
396.44	229.04
396.82	229.06
397.19	229.20
397.57	229.22
397.95	229.29
398.32	229.28
398.70	229.36
399.07	229.46
399.45	229.52
399.82	229.59
400.20	229.64
400.58	229.72
400.95	229.75
401.33	229.88
401.70	230.11
402.08	230.26
402.45	230.39
402.83	230.55
403.20	230.73
403.58	230.87
403.95	231.08
404.33	231.30
404.71	231.51
405.08	231.82
405.46	232.06
405.83	232.34
406.21	232.64
406.58	232.96
406.96	233.28
407.33	233.65
407.70	234.09
408.08	234.67
408.45	235.17
408.83	235.71
409.20	236.20
409.58	236.67
409.95	237.30
410.33	237.98
410.70	238.63
411.08	239.40
411.45	240.19
411.82	241.02
412.20	241.95
412.57	243.07
412.95	243.95
413.32	245.10
413.69	246.29
414.07	247.56
414.44	248.93
414.82	250.32
415.19	251.95
415.56	253.62
415.94	255.35
416.31	257.30
416.68	259.28
417.06	261.57
417.43	263.68
417.81	266.12
418.18	268.63
418.55	271.35
418.93	274.18
419.30	277.17
419.67	280.31
420.04	283.54
420.42	286.92
420.79	290.82
421.16	294.75
421.54	298.74
421.91	302.92
422.28	307.26
422.66	311.96
423.03	316.43
423.40	321.10
423.77	326.11
424.15	331.24
424.52	336.54
424.89	342.26
425.26	347.96
425.64	353.24
426.01	359.17
426.38	365.23
426.75	371.47
427.13	377.86
427.50	384.55
427.87	391.49
428.24	398.49
428.61	405.21
428.99	412.43
429.36	420.35
429.73	427.94
430.10	435.49
430.47	443.20
430.85	451.18
431.22	459.68
431.59	468.41
431.96	476.91
432.33	486.38
432.70	495.40
433.08	506.08
433.45	516.16
433.82	526.09
434.19	537.20
434.56	548.15
434.93	558.78
435.30	569.30
435.68	581.28
436.05	592.95
436.42	604.63
436.79	615.32
437.16	626.93
437.53	639.36
437.90	651.76
438.27	663.96
438.64	677.12
439.01	689.09
439.38	700.07
439.75	710.73
440.13	722.81
440.50	734.30
440.87	743.50
441.24	753.59
441.61	764.65
441.98	772.83
442.35	782.53
442.72	792.41
443.09	801.78
443.46	807.90
443.83	812.61
444.20	816.48
444.57	822.11
444.94	825.43
445.31	828.85
445.68	831.79
446.05	834.00
446.42	833.69
446.79	833.14
447.16	832.69
447.53	832.28
447.90	828.72
448.27	825.27
448.64	819.88
449.01	816.17
449.37	808.51
449.74	801.55
450.11	792.55
450.48	782.65
450.85	772.78
451.22	764.24
451.59	755.78
451.96	748.15
452.33	737.11
452.70	727.34
453.07	715.47
453.43	703.65
453.80	692.11
454.17	681.08
454.54	670.86
454.91	659.32
455.28	648.42
455.65	638.18
456.02	627.34
456.38	618.61
456.75	607.46
457.12	598.44
457.49	589.36
457.86	580.74
458.23	573.16
458.59	564.81
458.96	556.23
459.33	548.69
459.70	541.07
460.07	535.24
460.43	528.32
460.80	521.86
461.17	516.24
461.54	510.19
461.91	504.51
462.27	498.75
462.64	494.03
463.01	488.65
463.38	483.19
463.74	478.30
464.11	473.96
464.48	470.01
464.85	465.75
465.21	462.48
465.58	458.86
465.95	454.75
466.32	451.49
466.68	448.29
467.05	445.09
467.42	441.93
467.78	438.57
468.15	435.50
468.52	433.23
468.88	430.25
469.25	427.50
469.62	425.30
469.98	422.93
470.35	420.82
470.72	418.92
471.08	416.99
471.45	415.37
471.82	413.55
472.18	411.66
472.55	410.42
472.92	408.92
473.28	407.74
473.65	406.47
474.02	405.23
474.38	404.20
474.75	403.59
475.11	402.75
475.48	402.35
475.85	401.91
476.21	401.68
476.58	401.48
476.94	401.68
477.31	401.74
477.67	401.82
478.04	402.12
478.41	402.57
478.77	403.19
479.14	403.57
479.50	404.36
479.87	405.38
480.23	406.36
480.60	407.30
480.96	408.25
481.33	409.70
481.69	411.13
482.06	412.55
482.42	413.85
482.79	415.50
483.15	417.38
483.52	419.51
483.88	421.54
484.25	423.70
484.61	425.95
484.98	428.40
485.34	431.13
485.71	433.99
486.07	437.05
486.44	440.08
486.80	443.48
487.17	446.99
487.53	450.77
487.90	454.73
488.26	459.04
488.62	463.58
488.99	468.11
489.35	472.85
489.72	477.96
490.08	483.34
490.44	488.82
490.81	494.55
491.17	500.46
491.54	506.76
491.90	513.22
492.26	520.09
492.63	527.29
492.99	534.83
493.36	542.54
493.72	550.61
494.08	558.86
494.45	567.51
494.81	576.54
495.17	585.83
495.54	595.65
495.90	605.88
496.26	616.30
496.63	626.99
496.99	638.12
497.35	649.72
497.72	661.62
498.08	673.86
498.44	686.36
498.80	699.57
499.17	713.08
499.53	727.06
499.89	741.48
500.26	756.03
500.62	770.93
500.98	786.65
501.34	802.42
501.71	819.00
502.07	835.87
502.43	853.14
502.79	870.66
503.16	888.65
503.52	906.81
503.88	925.40
504.24	944.45
504.60	963.70
504.97	983.57
505.33	1003.84
505.69	1025.15
506.05	1046.67
506.41	1067.99
506.78	1089.48
507.14	1111.60
507.50	1134.10
507.86	1157.02
508.22	1180.08
508.59	1202.98
508.95	1226.99
509.31	1251.37
509.67	1276.34
510.03	1301.24
510.39	1326.06
510.75	1350.95
511.12	1376.20
511.48	1401.49
511.84	1426.81
512.20	1452.45
512.56	1478.97
512.92	1505.33
513.28	1531.07
513.64	1557.17
514.00	1583.55
514.37	1610.25
514.73	1636.87
515.09	1662.83
515.45	1689.08
515.81	1715.38
516.17	1741.39
516.53	1766.74
516.89	1792.06
517.25	1817.61
517.61	1842.90
517.97	1868.72
518.33	1893.87
518.69	1918.87
519.05	1944.26
519.41	1969.75
519.77	1995.08
520.13	2019.12
520.49	2043.28
520.85	2067.76
521.21	2091.56
521.57	2115.72
521.93	2138.90
522.29	2162.58
522.65	2186.03
523.01	2209.17
523.37	2231.67
523.73	2254.93
524.09	2277.87
524.45	2300.20
524.81	2321.92
525.17	2343.37
525.53	2364.28
525.89	2385.41
526.25	2406.17
526.61	2425.43
526.97	2444.66
527.33	2463.72
527.68	2482.34
528.04	2500.58
528.40	2517.35
528.76	2534.59
529.12	2551.35
529.48	2568.41
529.84	2582.90
530.20	2597.91
530.56	2611.91
530.91	2626.17
531.27	2639.86
531.63	2652.50
531.99	2665.03
532.35	2676.97
532.71	2688.56
533.07	2700.35
533.42	2710.33
533.78	2720.74
534.14	2731.90
534.50	2741.92
534.86	2752.40
535.21	2760.93
535.57	2769.25
535.93	2777.55
536.29	2784.04
536.65	2790.32
537.00	2795.14
537.36	2801.29
537.72	2806.29
538.08	2810.83
538.44	2814.43
538.79	2817.64
539.15	2819.52
539.51	2820.80
539.87	2821.11
540.22	2819.88
540.58	2818.90
540.94	2818.96
541.29	2817.52
541.65	2814.76
542.01	2811.65
542.37	2807.15
542.72	2804.07
543.08	2799.46
543.44	2795.02
543.79	2790.00
544.15	2784.30
544.51	2778.99
544.87	2772.55
545.22	2765.35
545.58	2758.09
545.94	2750.98
546.29	2742.31
546.65	2733.99
547.01	2725.66
547.36	2717.64
547.72	2709.94
548.07	2700.44
548.43	2689.95
548.79	2679.26
549.14	2669.05
549.50	2658.94
549.86	2647.89
550.21	2635.31
550.57	2623.67
550.92	2610.49
551.28	2597.90
551.64	2585.44
551.99	2572.65
552.35	2559.49
552.70	2546.22
553.06	2533.46
553.41	2520.11
553.77	2506.67
554.13	2493.34
554.48	2479.05
554.84	2464.26
555.19	2449.83
555.55	2435.29
555.90	2421.11
556.26	2407.31
556.61	2392.37
556.97	2376.51
557.32	2361.12
557.68	2346.06
558.03	2330.72
558.39	2316.29
558.74	2302.36
559.10	2286.77
559.45	2271.65
559.81	2257.21
560.16	2242.44
560.52	2227.41
560.87	2212.59
561.23	2197.47
561.58	2182.69
561.94	2167.52
562.29	2151.79
562.64	2136.28
563.00	2121.06
563.35	2105.86
563.71	2090.37
564.06	2075.05
564.42	2060.26
564.77	2045.49
565.12	2030.55
565.48	2015.53
565.83	2000.78
566.19	1986.05
566.54	1971.56
566.89	1956.34
567.25	1940.96
567.60	1926.47
567.96	1911.15
568.31	1894.88
568.66	1879.55
569.02	1864.78
569.37	1850.50
569.72	1836.89
570.08	1822.84
570.43	1808.20
570.78	1793.46
571.14	1778.47
571.49	1763.62
571.84	1749.11
572.20	1733.62
572.55	1718.86
572.90	1704.09
573.26	1689.17
573.61	1673.70
573.96	1658.77
574.31	1643.73
574.67	1628.76
575.02	1613.39
575.37	1598.17
575.72	1583.56
576.08	1568.83
576.43	1553.51
576.78	1538.26
577.13	1523.24
577.49	1508.47
577.84	1494.09
578.19	1479.26
578.54	1464.59
578.90	1449.93
579.25	1435.12
579.60	1421.28
579.95	1407.26
580.30	1393.15
580.66	1378.86
581.01	1364.69
581.36	1350.73
581.71	1337.45
582.06	1324.01
582.42	1310.50
582.77	1297.50
583.12	1284.68
583.47	1271.75
583.82	1259.07
584.17	1246.05
584.53	1233.09
584.88	1220.33
585.23	1207.47
585.58	1195.02
585.93	1182.54
586.28	1170.89
586.63	1159.12
586.98	1147.08
587.34	1135.32
587.69	1123.49
588.04	1112.05
588.39	1100.78
588.74	1089.10
589.09	1077.64
589.44	1065.96
589.79	1054.79
590.14	1043.65
590.49	1032.63
590.84	1021.82
591.19	1011.19
591.54	1000.77
591.89	989.91
592.25	979.45
592.60	968.89
592.95	958.50
593.30	948.38
593.65	937.99
594.00	927.89
594.35	918.63
594.70	908.74
595.05	899.46
595.40	889.92
595.75	880.26
596.10	871.24
596.45	862.16
596.80	853.41
597.15	844.73
597.50	836.09
597.85	827.54
598.19	819.04
598.54	810.57
598.89	802.51
599.24	794.86
599.59	787.06
599.94	779.83
600.29	772.59
600.64	765.19
600.99	757.73
601.34	750.46
601.69	742.72
602.04	735.79
602.39	728.77
602.74	721.92
603.08	715.28
603.43	708.56
603.78	701.81
604.13	695.17
604.48	688.59
604.83	682.20
605.18	675.92
605.53	669.77
605.87	663.59
606.22	657.52
606.57	651.40
606.92	645.15
607.27	638.94
607.62	632.95
607.96	627.23
608.31	621.88
608.66	616.49
609.01	611.34
609.36	606.17
609.70	600.91
610.05	595.71
610.40	590.65
610.75	585.60
611.10	580.77
611.44	575.95
611.79	571.17
612.14	566.34
612.49	561.60
612.83	557.08
613.18	552.63
613.53	548.16
613.88	543.86
614.22	539.86
614.57	535.80
614.92	531.81
615.27	527.94
615.61	523.98
615.96	520.06
616.31	516.13
616.65	512.36
617.00	508.65
617.35	505.01
617.70	501.40
618.04	497.88
618.39	494.45
618.74	491.24
619.08	488.02
619.43	484.87
619.78	481.70
620.12	478.53
620.47	475.56
620.82	472.63
621.16	469.71
621.51	466.85
621.85	464.00
622.20	461.23
622.55	458.39
622.89	455.62
623.24	453.02
623.59	450.48
623.93	447.98
624.28	445.64
624.62	443.50
624.97	441.31
625.32	439.06
625.66	436.76
626.01	434.45
626.35	432.26
626.70	430.02
627.04	427.97
627.39	425.87
627.73	423.85
628.08	421.91
628.43	419.96
628.77	417.91
629.12	416.04
629.46	414.23
629.81	412.55
630.15	410.78
630.50	409.01
630.84	407.30
631.19	405.63
631.53	404.02
631.88	402.25
632.22	400.58
632.57	399.16
632.91	397.73
633.26	396.34
633.60	394.95
633.95	393.65
634.29	392.22
634.64	390.87
634.98	389.36
635.32	388.04
635.67	386.82
636.01	385.62
636.36	384.44
636.70	383.36
637.05	382.12
637.39	381.03
637.73	379.92
638.08	378.87
638.42	377.86
638.77	376.73
639.11	375.55
639.45	374.41
639.80	373.21
640.14	372.12
640.49	371.01
640.83	369.91
641.17	368.84
641.52	367.80
641.86	366.79
642.20	365.94
642.55	364.90
642.89	363.89
643.23	362.95
643.58	362.10
643.92	361.07
644.26	360.16
644.61	359.28
644.95	358.34
645.29	357.34
645.64	356.31
645.98	355.41
646.32	354.61
646.66	353.75
647.01	352.93
647.35	352.18
647.69	351.40
648.04	350.70
648.38	349.93
648.72	349.20
649.06	348.43
649.41	347.62
649.75	346.89
650.09	346.18
650.43	345.42
650.78	344.66
651.12	343.93
651.46	343.20
651.80	342.48
652.14	341.82
652.49	341.21
652.83	340.55
653.17	339.84
653.51	339.17
653.85	338.60
654.20	337.99
654.54	337.23
654.88	336.53
655.22	335.89
655.56	335.21
655.90	334.56
656.25	333.93
656.59	333.32
656.93	332.74
657.27	332.20
657.61	331.59
657.95	331.03
658.29	330.45
658.64	329.91
658.98	329.32
659.32	328.72
659.66	328.16
660.00	327.63
660.34	327.11
660.68	326.53
661.02	325.89
661.36	325.31
661.70	324.76
662.05	324.24
662.39	323.69
662.73	323.23
663.07	322.81
663.41	322.35
663.75	321.83
664.09	321.32
664.43	320.71
664.77	320.20
665.11	319.61
665.45	319.08
665.79	318.56
666.13	318.02
666.47	317.48
666.81	316.92
667.15	316.32
667.49	315.84
667.83	315.40
668.17	314.94
668.51	314.50
668.85	314.08
669.19	313.69
669.53	313.16
669.87	312.62
670.21	312.06
670.55	311.53
670.89	311.15
671.23	310.71
671.57	310.31
671.91	309.94
672.25	309.59
672.58	309.26
672.92	308.82
673.26	308.46
673.60	308.09
673.94	307.71
674.28	307.36
674.62	306.97
674.96	306.52
675.30	306.13
675.64	305.69
675.97	305.22
676.31	304.74
676.65	304.31
676.99	303.99
677.33	303.55
677.67	303.17
678.01	302.67
678.34	302.23
678.68	301.81
679.02	301.34
679.36	300.89
679.70	300.42
680.04	300.03
680.37	299.62
680.71	299.23
681.05	298.86
681.39	298.44
681.73	297.97
682.06	297.54
682.40	297.14
682.74	296.77
683.08	296.48
683.42	296.10
683.75	295.74
684.09	295.26
684.43	294.86
684.77	294.42
685.10	294.04
685.44	293.65
685.78	293.23
686.12	292.85
686.45	292.44
686.79	292.00
687.13	291.58
687.46	291.12
687.80	290.71
688.14	290.22
688.48	289.81
688.81	289.42
689.15	289.10
689.49	288.68
689.82	288.24
690.16	287.70
690.50	287.26
690.83	286.84
691.17	286.38
691.51	285.96
691.84	285.59
692.18	285.16
692.52	284.69
692.85	284.27
693.19	283.89
693.52	283.45
693.86	283.03
694.20	282.61
694.53	282.20
694.87	281.75
695.21	281.33
695.54	280.90
695.88	280.45
696.21	279.93
696.55	279.48
696.88	279.05
697.22	278.64
697.56	278.23
697.89	277.78
698.23	277.39
698.56	276.95
698.90	276.54
699.23	276.11
699.57	275.72
699.90	275.31
700.24	274.86
700.58	274.48
700.91	274.14
701.25	273.91
701.58	273.60
701.92	273.28
702.25	272.91
702.59	272.52
702.92	272.14
703.26	271.76
703.59	271.39
703.93	271.17
704.26	270.81
704.60	270.45
704.93	270.08
705.26	269.70
705.60	269.38
705.93	268.97
706.27	268.68
706.60	268.36
706.94	268.06
707.27	267.68
707.61	267.31
707.94	266.90
708.27	266.38
708.61	265.93
708.94	265.53
709.28	265.16
709.61	264.80
709.94	264.49
710.28	264.16
710.61	263.86
710.95	263.37
711.28	263.15
711.61	262.79
711.95	262.50
712.28	262.17
712.61	261.82
712.95	261.58
713.28	261.31
713.61	260.96
713.95	260.60
714.28	260.29
714.61	259.96
714.95	259.68
715.28	259.37
715.61	259.10
715.95	258.83
716.28	258.54
716.61	258.28
716.95	257.98
717.28	257.70
717.61	257.39
717.94	257.12
718.28	256.71
718.61	256.43
718.94	256.12
719.27	255.87
719.61	255.63
719.94	255.32
720.27	254.97
720.60	254.72
720.94	254.46
721.27	254.22
721.60	254.00
721.93	253.73
722.27	253.52
722.60	253.28
722.93	253.01
723.26	252.78
723.59	252.51
723.93	252.30
724.26	252.08
724.59	251.84
724.92	251.64
725.25	251.49
725.59	251.26
725.92	251.05
726.25	250.82
726.58	250.60
726.91	250.37
727.24	250.17
727.57	249.95
727.91	249.70
728.24	249.51
728.57	249.28
728.90	249.09
729.23	248.84
729.56	248.72
729.89	248.52
730.22	248.31
730.55	248.11
730.89	247.90
731.22	247.70
731.55	247.51
731.88	247.32
732.21	247.10
732.54	246.91
732.87	246.74
733.20	246.57
733.53	246.39
733.86	246.24
734.19	246.04
734.52	245.91
734.85	245.88
735.18	245.69
735.51	245.58
735.84	245.42
736.17	245.30
736.50	245.04
736.83	245.08
737.16	244.92
737.49	244.77
737.82	244.60
738.15	244.46
738.48	244.31
738.81	244.14
739.14	243.95
739.47	243.79
739.80	243.62
740.13	243.48
740.46	243.30
740.79	243.11
741.12	242.97
741.45	242.77
741.78	242.52
742.11	242.41
742.44	242.22
742.77	242.09
743.10	241.92
743.43	241.77
743.75	241.45
744.08	241.58
744.41	241.42
744.74	241.28
745.07	241.11
745.40	241.01
745.73	240.95
746.06	240.84
746.39	240.72
746.71	240.58
747.04	240.43
747.37	240.30
747.70	240.21
748.03	240.10
748.36	240.02
748.68	239.90
749.01	239.74
749.34	239.63
749.67	239.52
750.00	239.43
750.33	239.45
750.65	239.36
750.98	238.97
751.31	238.88
751.64	238.79
751.97	238.79
752.29	238.67
752.62	238.48
752.95	238.38
753.28	238.25
753.60	238.13
753.93	238.07
754.26	238.00
754.59	237.84
754.91	237.72
755.24	237.60
755.57	237.50
755.90	237.39
756.22	237.26
756.55	237.13
756.88	236.99
757.20	236.78
757.53	236.62
757.86	236.53
758.19	236.44
758.51	236.33
758.84	236.15
759.17	236.03
759.49	235.94
759.82	235.93
760.15	235.88
760.47	235.79
760.80	235.65
761.13	235.59
761.45	235.50
761.78	235.42
762.11	235.35
762.43	235.24
762.76	235.17
763.08	235.11
763.41	235.06
763.74	234.99
764.06	234.91
764.39	234.85
764.71	234.78
765.04	234.69
765.37	234.61
765.69	234.53
766.02	234.46
766.34	234.38
766.67	234.24
767.00	234.20
767.32	234.22
767.65	234.27
767.97	234.19
768.30	234.13
768.62	234.05
768.95	233.96
769.27	233.90
769.60	233.86
769.92	233.76
770.25	233.66
770.57	233.57
770.90	233.51
771.22	233.44
771.55	233.38
771.87	233.34
772.20	233.28
772.52	233.37
772.85	233.54
773.17	233.49
773.50	233.41
773.82	233.32
774.15	233.18
774.47	233.02
774.80	232.96
775.12	232.91
775.45	232.87
775.77	232.83
776.09	232.79
776.42	232.73
776.74	232.75
777.07	232.70
777.39	232.67
777.72	232.61
778.04	232.59
778.36	232.53
778.69	232.49
779.01	232.46
779.33	232.27
779.66	232.04
779.98	231.98
780.31	231.96
780.63	232.00
780.95	232.00
781.28	231.96
781.60	231.91
781.92	231.88
782.25	231.84
782.57	231.81
782.89	231.77
783.22	231.73
783.54	231.65
783.86	231.64
784.19	231.59
784.51	231.61
784.83	231.56
785.16	231.53
785.48	231.49
785.80	231.46
786.12	231.44
786.45	231.41
786.77	231.40
787.09	231.36
787.42	231.26
787.74	231.23
788.06	231.22
788.38	231.19
788.71	231.15
789.03	231.13
789.35	231.13
789.67	231.08
789.99	231.07
790.32	231.02
790.64	231.01
790.96	231.15
791.28	231.07
791.61	231.05
791.93	231.03
792.25	231.01
792.57	231.11
792.89	231.04
793.21	231.02
793.54	230.97
793.86	230.93
794.18	230.92
794.50	230.86
794.82	230.83
795.14	230.84
795.47	230.86
795.79	230.84
796.11	230.78
796.43	230.76
796.75	230.73
797.07	230.72
797.39	230.69
797.71	230.52
798.04	230.51
798.36	230.50
798.68	230.47
799.00	230.46
799.32	230.36
799.64	230.39
799.96	230.38
800.28	230.39
800.60	230.37
800.92	230.36
801.24	230.34
801.56	230.33
801.89	230.29
802.21	230.27
802.53	230.21
802.85	230.24
803.17	230.29
803.49	230.24
803.81	230.21
804.13	230.19
804.45	230.16
804.77	230.16
805.09	230.14
805.41	230.11
805.73	230.06
806.05	229.99
806.37	229.95
806.69	229.92
807.01	229.88
807.33	229.88
807.65	229.80
807.97	229.86
808.28	229.83
808.60	229.80
808.92	229.76
809.24	229.85
809.56	229.79
809.88	229.71
810.20	229.71
810.52	229.74
810.84	229.68
811.16	229.65
811.48	229.62
811.80	229.66
812.12	229.65
812.43	229.67
812.75	229.66
813.07	229.64
813.39	229.65
813.71	229.61
814.03	229.59
814.35	229.59
814.67	229.51
814.98	229.49
815.30	229.48
815.62	229.44
815.94	229.32
816.26	229.34
816.58	229.31
816.89	229.30
817.21	229.26
817.53	229.26
817.85	229.26
818.17	229.25
818.48	229.16
818.80	229.19
819.12	229.15
819.44	229.11
819.76	229.08
820.07	229.05
820.39	229.04
820.71	229.04
821.03	229.03
821.34	229.00
821.66	229.01
821.98	229.02
822.30	229.00
822.61	229.11
822.93	229.07
823.25	229.06
823.57	229.03
823.88	229.03
824.20	229.02
824.52	229.05
824.83	229.03
825.15	229.01
825.47	228.97
825.79	228.98
826.10	228.97
826.42	228.97
826.74	228.98
827.05	228.97
827.37	228.96
827.69	228.93
828.00	228.94
828.32	228.93
828.64	228.89
828.95	228.98
829.27	228.92
829.58	228.92
829.90	228.95
830.22	228.96
830.53	228.92
830.85	228.90
831.17	228.84
831.48	228.83
831.80	228.84
832.11	228.84
832.43	228.81
832.75	228.80
833.06	228.89
833.38	228.83
833.69	228.83
834.01	228.83
834.32	228.83
834.64	228.80
834.96	228.80
835.27	228.80
835.59	228.73
835.90	228.69
836.22	228.67
836.53	228.63
836.85	228.61
837.16	228.77
837.48	228.78
837.79	228.83
838.11	228.83
838.42	228.82
838.74	228.84
839.05	228.81
839.37	228.80
839.68	228.68
840.00	228.69
840.31	228.70
840.63	228.68
840.94	228.66
841.26	228.64
841.57	228.62
841.88	228.63
842.20	228.61
842.51	228.59
842.83	228.58
843.14	228.74
843.46	228.73
843.77	228.64
844.08	228.64
844.40	228.58
844.71	228.56
845.03	228.55
845.34	228.52
845.65	228.52
845.97	228.52
846.28	228.53
846.60	228.52
846.91	228.50
847.22	228.50
847.54	228.52
847.85	228.54
848.16	228.52
848.48	228.49
848.79	228.54
849.10	228.57
849.42	228.58
849.73	228.40
850.04	228.39
850.36	228.32
850.67	228.35
850.98	228.35
851.30	228.36
851.61	228.35
851.92	228.35
852.23	228.40
852.55	228.41
852.86	228.41
853.17	228.44
853.49	228.48
853.80	228.51
854.11	228.52
854.42	228.53
854.74	228.52
855.05	228.53
855.36	228.44
855.67	228.43
855.99	228.43
856.30	228.65
856.61	228.65
856.92	228.66
857.23	228.65
857.55	228.63
857.86	228.61
858.17	228.64
858.48	228.61
858.79	228.57
859.11	228.59
859.42	228.56
859.73	228.53
860.04	228.51
860.35	228.44
860.66	228.38
860.98	228.38
861.29	228.40
861.60	228.38
861.91	228.43
862.22	228.40
862.53	228.37
862.84	228.15
863.16	228.19
863.47	228.15
863.78	228.13
864.09	228.14
864.40	228.15
864.71	228.15
865.02	228.18
865.33	228.15
865.64	228.11
865.95	228.13
866.27	228.23
866.58	228.23
866.89	228.27
867.20	228.27
867.51	228.24
867.82	228.22
868.13	228.27
868.44	228.23
868.75	228.27
869.06	228.27
869.37	228.30
869.68	228.25
869.99	228.28
870.30	228.28
870.61	228.30
870.92	228.27
871.23	228.24
871.54	228.25
871.85	228.28
872.16	228.31
872.47	228.29
872.78	228.19
873.09	228.20
873.40	228.17
873.71	228.18
874.02	228.19
874.33	228.17
874.64	228.13
874.95	228.16
875.26	228.11
875.56	228.10
875.87	228.09
876.18	228.09
876.49	228.27
876.80	228.25
877.11	228.21
877.42	228.23
877.73	228.25
878.04	228.24
878.35	228.23
878.66	228.22
878.96	228.21
879.27	228.21
879.58	228.19
879.89	228.18
880.20	228.23
880.51	228.23
880.82	228.24
881.12	228.25
881.43	228.21
881.74	228.19
882.05	228.17
882.36	228.18
882.67	228.19
882.97	228.00
883.28	227.99
883.59	227.99
883.90	228.00
884.21	228.01
884.51	228.00
884.82	227.98
885.13	227.98
885.44	227.98
885.74	227.99
886.05	227.99
886.36	227.99
886.67	227.93
886.98	228.01
887.28	228.02
887.59	228.01
887.90	228.03
888.20	228.03
888.51	228.07
888.82	228.04
889.13	228.05
889.43	228.20
889.74	228.19
890.05	228.18
890.35	228.16
890.66	228.12
890.97	228.11
891.28	228.10
891.58	228.09
891.89	228.09
892.20	228.06
892.50	228.04
892.81	228.02
893.12	228.02
893.42	227.93
893.73	227.94
894.04	227.94
894.34	227.94
894.65	227.93
894.95	227.91
895.26	227.92
895.57	228.00
895.87	227.82
896.18	227.85
896.48	227.86
896.79	227.85
897.10	227.88
897.40	227.89
897.71	227.91
898.01	227.90
898.32	227.91
898.63	227.91
898.93	227.92
899.24	227.93
899.54	227.92
899.85	227.92
900.15	227.91
900.46	227.90
900.76	227.91
901.07	227.92
901.38	227.93
901.68	227.93
901.99	227.83
902.29	227.85
902.60	227.83
902.90	227.81
903.21	227.81
903.51	227.80
903.82	227.83
904.12	227.83
904.43	227.83
904.73	227.82
905.03	227.84
905.34	227.99
905.64	227.99
905.95	227.99
906.25	228.00
906.56	227.99
906.86	227.98
907.17	227.96
907.47	227.98
907.77	227.95
908.08	227.92
908.38	227.94
908.69	227.95
908.99	227.99
909.30	228.00
909.60	228.00
909.90	227.99
910.21	227.93
910.51	227.90
910.81	227.91
911.12	227.91
911.42	227.91
911.73	227.74
912.03	227.75
912.33	227.78
912.64	227.76
912.94	227.74
913.24	227.71
913.55	227.69
913.85	227.67
914.15	227.70
914.46	227.72
914.76	227.70
915.06	227.69
915.37	227.64
915.67	227.63
915.97	227.63
916.27	227.61
916.58	227.64
916.88	227.64
917.18	227.62
917.49	227.74
917.79	227.73
918.09	227.76
918.39	227.79
918.70	227.79
919.00	227.79
919.30	227.88
919.60	227.90
919.91	227.89
920.21	227.91
920.51	227.86
920.81	227.85
921.12	227.89
921.42	227.89
921.72	227.91
922.02	227.92
922.32	227.94
922.63	227.94
922.93	228.03
923.23	228.04
923.53	228.02
923.83	227.90
924.13	227.91
924.44	227.90
924.74	227.93
925.04	227.96
925.34	227.96
925.64	227.89
925.94	227.88
926.24	227.98
926.55	227.95
926.85	227.99
927.15	227.98
927.45	227.97
927.75	227.96
928.05	227.96
928.35	227.94
928.65	227.97
928.95	227.99
929.26	227.90
929.56	227.94
929.86	227.97
930.16	227.97
930.46	227.96
930.76	227.98
931.06	227.90
931.36	227.85
931.66	227.88
931.96	227.90
932.26	227.91
932.56	227.84
932.86	227.86
933.16	227.87
933.46	227.87
933.76	227.84
934.06	227.87
934.36	227.93
934.66	227.93
934.96	227.90
935.26	227.91
935.56	227.93
935.86	227.88
936.16	227.85
936.46	227.83
936.76	227.82
937.06	227.79
937.36	227.81
937.66	227.82
937.96	227.80
938.26	227.75
938.56	227.74
938.86	227.74
939.16	227.77
939.46	227.78
939.76	227.78
940.06	227.78
940.35	227.76
940.65	227.68
940.95	227.69
941.25	227.65
941.55	227.61
941.85	227.60
942.15	227.64
942.45	227.69
942.75	227.68
943.04	227.70
943.34	227.74
943.64	227.72
943.94	227.69
944.24	227.70
944.54	227.72
944.84	227.71
945.13	227.69
945.43	227.67
945.73	227.66
946.03	227.65
946.33	227.62
946.62	227.61
946.92	227.60
947.22	227.61
947.52	227.62
947.82	227.65
948.11	227.63
948.41	227.59
948.71	227.55
949.01	227.56
949.31	227.54
949.60	227.51
949.90	227.54
950.20	227.54
950.50	227.53
950.79	227.52
951.09	227.54
951.39	227.54
951.69	227.52
951.98	227.55
952.28	227.56
952.58	227.57
952.87	227.57
953.17	227.60
953.47	227.59
953.76	227.59
954.06	227.56
954.36	227.53
954.66	227.52
954.95	227.55
955.25	227.56
955.55	227.58
955.84	227.54
956.14	227.55
956.44	227.56
956.73	227.53
957.03	227.53
957.32	227.53
957.62	227.52
957.92	227.56
958.21	227.54
958.51	227.75
958.81	227.76
959.10	227.77
959.40	227.80
959.69	227.81
959.99	227.83
960.29	227.84
960.58	227.84
960.88	227.90
961.17	227.89
961.47	227.91
961.76	227.89
962.06	227.93
962.36	227.92
962.65	227.92
962.95	227.94
963.24	227.92
963.54	227.93
963.83	227.94
964.13	227.92
964.42	227.90
964.72	227.73
965.01	227.74
965.31	227.73
965.60	227.68
965.90	227.78
966.19	227.74
966.49	227.75
966.78	227.75
967.08	227.74
967.37	227.74
967.67	227.70
967.96	227.75
968.26	227.74
968.55	227.76
968.85	227.76
969.14	227.77
969.43	227.77
969.73	227.75
970.02	227.75
970.32	227.74
970.61	227.72
970.91	227.68
971.20	227.66
971.49	227.65
971.79	227.68
972.08	227.56
972.38	227.60
972.67	227.58
972.96	227.61
973.26	227.58
973.55	227.63
973.85	227.63
974.14	227.61
974.43	227.62
974.73	227.59
975.02	227.57
975.31	227.58
975.61	227.57
975.90	227.56
976.19	227.54
976.49	227.56
976.78	227.58
977.07	227.58
977.37	227.59
977.66	227.61
977.95	227.58
978.24	227.60
978.54	227.63
978.83	227.62
979.12	227.61
979.42	227.61
979.71	227.58
980.00	227.58
980.29	227.59
980.59	227.55
980.88	227.60
981.17	227.60
981.46	227.58
981.76	227.59
982.05	227.65
982.34	227.67
982.63	227.67
982.93	227.67
983.22	227.72
983.51	227.74
983.80	227.77
984.09	227.79
984.39	227.78
984.68	227.76
984.97	227.77
985.26	227.75
985.55	227.77
985.85	227.73
986.14	227.76
986.43	227.78
986.72	227.78
987.01	227.71
987.30	227.71
987.59	227.71
987.89	227.72
988.18	227.66
988.47	227.65
988.76	227.64
989.05	227.62
989.34	227.59
989.63	227.64
989.92	227.60
990.22	227.58
990.51	227.57
990.80	227.56
991.09	227.58
991.38	227.61
991.67	227.58
991.96	227.57
992.25	227.57
992.54	227.55
992.83	227.55
993.12	227.55
993.41	227.58
993.70	227.66
993.99	227.68
994.28	227.70
994.58	227.73
994.87	227.72
995.16	227.72
995.45	227.70
995.74	227.62
996.03	227.66
996.32	227.68
996.61	227.72
996.90	227.71
997.19	227.69
997.48	227.69
997.77	227.66
998.06	227.68
998.34	227.67
998.63	227.66
998.92	227.67
999.21	227.70
999.50	227.71
999.79	227.63
1000.08	227.62
1000.37	227.61
1000.66	227.58
1000.95	227.62
1001.24	227.63
1001.53	227.65
1001.82	227.65
1002.11	227.61
1002.40	227.62
1002.68	227.65
1002.97	227.77
1003.26	227.75
1003.55	227.72
1003.84	227.75
1004.13	227.79
1004.42	227.78
1004.71	227.78
1004.99	227.77
1005.28	227.81
1005.57	227.78
1005.86	227.77
1006.15	227.75
1006.44	227.72
1006.72	227.74
1007.01	227.72
1007.30	227.72
1007.59	227.69
1007.88	227.68
1008.17	227.69
1008.45	227.65
1008.74	227.59
1009.03	227.50
1009.32	227.50
1009.60	227.51
1009.89	227.49
1010.18	227.43
1010.47	227.41
1010.76	227.41
1011.04	227.41
1011.33	227.40
1011.62	227.41
1011.91	227.42
1012.19	227.44
1012.48	227.44
1012.77	227.44
1013.05	227.49
1013.34	227.48
1013.63	227.48
1013.92	227.50
1014.20	227.49
1014.49	227.50
1014.78	227.51
1015.06	227.46
1015.35	227.47
1015.64	227.48
1015.92	227.51
1016.21	227.52
1016.50	227.52
1016.78	227.53
1017.07	227.55
1017.36	227.52
1017.64	227.49
1017.93	227.52
1018.22	227.48
1018.50	227.48
1018.79	227.48
1019.08	227.43
1019.36	227.43
1019.65	227.41
1019.93	227.45
1020.22	227.48
1020.51	227.57
1020.79	227.55
1021.08	227.07
1021.36	227.03
1021.65	227.64
1021.94	227.41
1022.22	227.50
1022.51	227.06
1022.79	228.31
1023.08	227.73
1023.36	229.62
1023.65	227.14
>>>>>End Processed Spectral Data<<<<<
