SpectraSuite Data File
++++++++++++++++++++++++++++++++++++
Date: Wed Oct 07 02:30:05 EDT 2015
User: lab3
Dark Spectrum Present: No
Reference Spectrum Present: No
Number of Sampled Component Spectra: 1
Spectrometers: USB2E7196
Integration Time (usec): 66000 (USB2E7196)
Spectra Averaged: 10000 (USB2E7196)
Boxcar Smoothing: 10 (USB2E7196)
Correct for Electrical Dark: No (USB2E7196)
Strobe/Lamp Enabled: No (USB2E7196)
Correct for Detector Non-linearity: No (USB2E7196)
Correct for Stray Light: No (USB2E7196)
Number of Pixels in Processed Spectrum: 2048
>>>>>Begin Processed Spectral Data<<<<<
339.09	0.00
339.48	212.35
339.86	213.81
340.24	215.14
340.63	216.55
341.01	220.80
341.39	219.32
341.78	220.84
342.16	222.17
342.54	222.36
342.93	211.00
343.31	221.66
343.69	222.20
344.07	222.66
344.46	223.11
344.84	223.52
345.22	223.71
345.60	223.99
345.99	224.20
346.37	224.34
346.75	224.46
347.13	224.55
347.52	224.64
347.90	224.76
348.28	224.81
348.66	224.90
349.05	224.89
349.43	224.96
349.81	225.04
350.19	225.11
350.57	225.19
350.96	225.30
351.34	225.41
351.72	225.52
352.10	225.64
352.48	225.71
352.87	225.76
353.25	225.83
353.63	225.88
354.01	225.94
354.39	226.02
354.77	226.10
355.15	226.22
355.54	226.26
355.92	226.26
356.30	226.34
356.68	226.53
357.06	226.61
357.44	226.64
357.82	226.70
358.20	226.92
358.58	226.97
358.97	227.04
359.35	227.13
359.73	227.23
360.11	227.28
360.49	227.34
360.87	227.39
361.25	227.47
361.63	227.58
362.01	227.64
362.39	227.67
362.77	227.73
363.15	227.74
363.53	227.79
363.91	227.83
364.29	227.85
364.67	227.70
365.05	227.73
365.43	227.77
365.81	227.81
366.19	227.76
366.57	227.84
366.95	227.84
367.33	227.80
367.71	227.79
368.09	227.83
368.47	227.82
368.85	227.82
369.23	227.84
369.61	227.76
369.99	227.80
370.37	227.80
370.75	227.92
371.13	227.89
371.51	227.84
371.89	227.83
372.27	227.82
372.65	227.80
373.03	227.76
373.41	227.71
373.78	227.66
374.16	227.53
374.54	227.43
374.92	227.37
375.30	227.34
375.68	227.27
376.06	227.22
376.44	227.16
376.82	227.13
377.19	227.08
377.57	227.03
377.95	226.92
378.33	226.86
378.71	226.64
379.09	226.60
379.47	226.58
379.84	226.52
380.22	226.45
380.60	226.38
380.98	226.34
381.36	226.28
381.73	226.22
382.11	226.22
382.49	226.18
382.87	226.12
383.25	226.08
383.62	226.25
384.00	226.17
384.38	226.15
384.76	226.15
385.13	226.17
385.51	226.13
385.89	226.08
386.27	226.05
386.64	226.05
387.02	226.00
387.40	225.95
387.78	225.94
388.15	225.93
388.53	225.90
388.91	225.87
389.29	225.84
389.66	225.85
390.04	225.81
390.42	225.82
390.79	225.82
391.17	225.80
391.55	225.59
391.92	225.58
392.30	225.60
392.68	225.55
393.05	225.53
393.43	225.54
393.81	225.56
394.18	225.55
394.56	225.56
394.94	225.62
395.31	225.62
395.69	225.70
396.06	225.75
396.44	225.79
396.82	225.81
397.19	225.94
397.57	225.97
397.95	226.04
398.32	226.04
398.70	226.11
399.07	226.21
399.45	226.27
399.82	226.34
400.20	226.40
400.58	226.49
400.95	226.51
401.33	226.64
401.70	226.87
402.08	227.02
402.45	227.15
402.83	227.33
403.20	227.50
403.58	227.63
403.95	227.84
404.33	228.07
404.71	228.29
405.08	228.61
405.46	228.86
405.83	229.14
406.21	229.44
406.58	229.78
406.96	230.10
407.33	230.49
407.70	230.92
408.08	231.50
408.45	232.02
408.83	232.58
409.20	233.08
409.58	233.55
409.95	234.18
410.33	234.87
410.70	235.52
411.08	236.28
411.45	237.10
411.82	237.93
412.20	238.88
412.57	240.00
412.95	240.90
413.32	242.06
413.69	243.26
414.07	244.53
414.44	245.91
414.82	247.32
415.19	248.98
415.56	250.67
415.94	252.42
416.31	254.39
416.68	256.36
417.06	258.64
417.43	260.78
417.81	263.25
418.18	265.76
418.55	268.50
418.93	271.35
419.30	274.33
419.67	277.48
420.04	280.72
420.42	284.12
420.79	288.03
421.16	291.98
421.54	295.98
421.91	300.17
422.28	304.51
422.66	309.19
423.03	313.64
423.40	318.31
423.77	323.29
424.15	328.40
424.52	333.70
424.89	339.43
425.26	345.11
425.64	350.39
426.01	356.31
426.38	362.36
426.75	368.59
427.13	374.96
427.50	381.63
427.87	388.55
428.24	395.52
428.61	402.20
428.99	409.39
429.36	417.31
429.73	424.87
430.10	432.42
430.47	440.13
430.85	448.10
431.22	456.58
431.59	465.29
431.96	473.79
432.33	483.25
432.70	492.25
433.08	502.90
433.45	512.94
433.82	522.87
434.19	534.00
434.56	544.97
434.93	555.59
435.30	566.14
435.68	578.09
436.05	589.80
436.42	601.53
436.79	612.25
437.16	623.91
437.53	636.35
437.90	648.81
438.27	661.04
438.64	674.29
439.01	686.34
439.38	697.39
439.75	708.08
440.13	720.29
440.50	731.90
440.87	741.20
441.24	751.43
441.61	762.65
441.98	770.99
442.35	780.87
442.72	790.95
443.09	800.56
443.46	806.87
443.83	811.68
444.20	815.73
444.57	821.49
444.94	824.98
445.31	828.61
445.68	831.79
446.05	834.24
446.42	834.16
446.79	833.82
447.16	833.58
447.53	833.41
447.90	830.01
448.27	826.82
448.64	821.65
449.01	818.17
449.37	810.62
449.74	803.76
450.11	794.88
450.48	785.07
450.85	775.20
451.22	766.77
451.59	758.46
451.96	750.91
452.33	739.95
452.70	730.17
453.07	718.30
453.43	706.42
453.80	694.83
454.17	683.68
454.54	673.41
454.91	661.82
455.28	650.85
455.65	640.50
456.02	629.50
456.38	620.65
456.75	609.30
457.12	600.17
457.49	590.96
457.86	582.21
458.23	574.51
458.59	566.04
458.96	557.33
459.33	549.68
459.70	541.89
460.07	535.95
460.43	528.95
460.80	522.41
461.17	516.73
461.54	510.59
461.91	504.81
462.27	498.94
462.64	494.13
463.01	488.67
463.38	483.16
463.74	478.19
464.11	473.75
464.48	469.75
464.85	465.44
465.21	462.14
465.58	458.48
465.95	454.32
466.32	451.03
466.68	447.81
467.05	444.56
467.42	441.39
467.78	438.01
468.15	434.88
468.52	432.58
468.88	429.52
469.25	426.74
469.62	424.54
469.98	422.16
470.35	420.05
470.72	418.10
471.08	416.16
471.45	414.53
471.82	412.70
472.18	410.80
472.55	409.55
472.92	408.00
473.28	406.78
473.65	405.49
474.02	404.22
474.38	403.15
474.75	402.51
475.11	401.64
475.48	401.23
475.85	400.76
476.21	400.48
476.58	400.28
476.94	400.42
477.31	400.43
477.67	400.46
478.04	400.72
478.41	401.12
478.77	401.70
479.14	402.03
479.50	402.79
479.87	403.77
480.23	404.72
480.60	405.62
480.96	406.53
481.33	407.94
481.69	409.33
482.06	410.68
482.42	411.93
482.79	413.49
483.15	415.31
483.52	417.39
483.88	419.37
484.25	421.47
484.61	423.67
484.98	426.06
485.34	428.75
485.71	431.53
486.07	434.54
486.44	437.49
486.80	440.84
487.17	444.24
487.53	447.94
487.90	451.83
488.26	456.06
488.62	460.54
488.99	464.99
489.35	469.68
489.72	474.73
490.08	480.03
490.44	485.44
490.81	491.07
491.17	496.88
491.54	503.12
491.90	509.48
492.26	516.29
492.63	523.43
492.99	530.91
493.36	538.56
493.72	546.58
494.08	554.83
494.45	563.47
494.81	572.51
495.17	581.78
495.54	591.57
495.90	601.80
496.26	612.21
496.63	622.95
496.99	634.04
497.35	645.69
497.72	657.65
498.08	669.92
498.44	682.56
498.80	695.87
499.17	709.46
499.53	723.52
499.89	738.01
500.26	752.74
500.62	767.82
500.98	783.80
501.34	799.82
501.71	816.57
502.07	833.68
502.43	851.25
502.79	869.08
503.16	887.38
503.52	905.91
503.88	924.86
504.24	944.30
504.60	964.02
504.97	984.32
505.33	1005.14
505.69	1027.05
506.05	1049.18
506.41	1071.36
506.78	1093.68
507.14	1116.50
507.50	1139.87
507.86	1163.60
508.22	1187.58
508.59	1211.44
508.95	1236.29
509.31	1261.76
509.67	1287.87
510.03	1313.98
510.39	1339.96
510.75	1366.03
511.12	1392.40
511.48	1419.18
511.84	1445.84
512.20	1472.81
512.56	1500.96
512.92	1528.98
513.28	1556.30
513.64	1584.08
514.00	1612.23
514.37	1640.66
514.73	1669.18
515.09	1697.03
515.45	1725.12
515.81	1753.58
516.17	1781.77
516.53	1809.30
516.89	1836.48
517.25	1863.93
517.61	1891.23
517.97	1919.16
518.33	1946.63
518.69	1974.05
519.05	2001.72
519.41	2029.61
519.77	2057.70
520.13	2084.20
520.49	2110.57
520.85	2137.44
521.21	2163.67
521.57	2190.23
521.93	2215.63
522.29	2241.81
522.65	2267.76
523.01	2293.47
523.37	2318.38
523.73	2344.06
524.09	2369.42
524.45	2394.66
524.81	2419.31
525.17	2443.84
525.53	2467.34
525.89	2491.34
526.25	2515.04
526.61	2537.00
526.97	2559.03
527.33	2580.69
527.68	2602.40
528.04	2623.70
528.40	2643.95
528.76	2664.12
529.12	2683.73
529.48	2704.19
529.84	2721.90
530.20	2739.85
530.56	2757.19
530.91	2774.51
531.27	2791.13
531.63	2806.98
531.99	2822.27
532.35	2837.38
532.71	2852.10
533.07	2867.39
533.42	2880.67
533.78	2893.97
534.14	2908.45
534.50	2921.84
534.86	2935.87
535.21	2947.32
535.57	2958.79
535.93	2969.71
536.29	2979.08
536.65	2988.22
537.00	2996.10
537.36	3005.05
537.72	3013.17
538.08	3020.89
538.44	3027.23
538.79	3033.52
539.15	3038.50
539.51	3042.78
539.87	3045.71
540.22	3046.86
540.58	3048.28
540.94	3050.24
541.29	3051.36
541.65	3050.95
542.01	3050.12
542.37	3047.48
542.72	3046.75
543.08	3044.17
543.44	3041.76
543.79	3039.21
544.15	3035.88
544.51	3032.33
544.87	3027.91
545.22	3022.52
545.58	3016.53
545.94	3011.02
546.29	3004.08
546.65	2997.17
547.01	2990.41
547.36	2984.30
547.72	2978.37
548.07	2970.64
548.43	2961.75
548.79	2952.42
549.14	2943.37
549.50	2934.49
549.86	2924.82
550.21	2913.23
550.57	2902.98
550.92	2891.12
551.28	2879.30
551.64	2867.79
551.99	2856.17
552.35	2844.06
552.70	2831.88
553.06	2820.24
553.41	2808.19
553.77	2795.64
554.13	2783.22
554.48	2769.67
554.84	2754.74
555.19	2740.23
555.55	2725.81
555.90	2711.95
556.26	2698.37
556.61	2683.76
556.97	2667.94
557.32	2652.48
557.68	2637.50
558.03	2622.04
558.39	2607.44
558.74	2593.67
559.10	2578.08
559.45	2562.35
559.81	2547.22
560.16	2531.67
560.52	2515.80
560.87	2500.28
561.23	2484.26
561.58	2468.83
561.94	2453.06
562.29	2436.95
562.64	2421.03
563.00	2405.08
563.35	2389.42
563.71	2373.24
564.06	2357.26
564.42	2341.77
564.77	2326.45
565.12	2310.79
565.48	2294.76
565.83	2278.77
566.19	2262.68
566.54	2246.77
566.89	2230.47
567.25	2214.27
567.60	2198.97
567.96	2183.16
568.31	2165.71
568.66	2148.97
569.02	2132.94
569.37	2117.47
569.72	2102.50
570.08	2087.18
570.43	2071.15
570.78	2054.83
571.14	2038.56
571.49	2022.18
571.84	2006.04
572.20	1988.65
572.55	1971.94
572.90	1955.42
573.26	1939.19
573.61	1922.24
573.96	1905.79
574.31	1889.25
574.67	1872.29
575.02	1854.95
575.37	1837.58
575.72	1821.13
576.08	1804.63
576.43	1787.09
576.78	1769.89
577.13	1752.94
577.49	1736.12
577.84	1719.91
578.19	1703.29
578.54	1686.54
578.90	1669.72
579.25	1652.69
579.60	1637.02
579.95	1621.05
580.30	1605.04
580.66	1588.68
581.01	1572.46
581.36	1556.27
581.71	1540.96
582.06	1525.75
582.42	1510.39
582.77	1495.36
583.12	1480.59
583.47	1465.93
583.82	1451.43
584.17	1436.28
584.53	1421.29
584.88	1406.63
585.23	1391.82
585.58	1377.40
585.93	1362.82
586.28	1349.28
586.63	1335.66
586.98	1321.48
587.34	1307.76
587.69	1293.85
588.04	1280.23
588.39	1266.88
588.74	1253.23
589.09	1239.68
589.44	1225.76
589.79	1212.54
590.14	1199.34
590.49	1186.16
590.84	1173.18
591.19	1160.63
591.54	1148.25
591.89	1135.51
592.25	1123.05
592.60	1110.47
592.95	1098.02
593.30	1086.07
593.65	1073.80
594.00	1061.83
594.35	1050.79
594.70	1039.04
595.05	1027.91
595.40	1016.67
595.75	1005.29
596.10	994.52
596.45	983.64
596.80	973.33
597.15	962.89
597.50	952.42
597.85	942.40
598.19	932.30
598.54	922.16
598.89	912.54
599.24	903.35
599.59	893.86
599.94	885.11
600.29	876.45
600.64	867.54
600.99	858.50
601.34	849.87
601.69	840.67
602.04	832.44
602.39	824.09
602.74	815.97
603.08	807.96
603.43	799.97
603.78	792.01
604.13	784.04
604.48	776.08
604.83	768.47
605.18	760.79
605.53	753.37
605.87	745.94
606.22	738.61
606.57	731.19
606.92	723.77
607.27	716.36
607.62	709.08
607.96	702.07
608.31	695.62
608.66	688.98
609.01	682.66
609.36	676.31
609.70	669.94
610.05	663.54
610.40	657.35
610.75	651.11
611.10	645.13
611.44	639.13
611.79	633.33
612.14	627.37
612.49	621.51
612.83	615.96
613.18	610.49
613.53	605.02
613.88	599.67
614.22	594.73
614.57	589.70
614.92	584.80
615.27	580.01
615.61	575.09
615.96	570.27
616.31	565.40
616.65	560.68
617.00	556.08
617.35	551.59
617.70	547.10
618.04	542.74
618.39	538.45
618.74	534.47
619.08	530.41
619.43	526.52
619.78	522.60
620.12	518.60
620.47	514.81
620.82	511.12
621.16	507.49
621.51	503.89
621.85	500.30
622.20	496.74
622.55	493.23
622.89	489.74
623.24	486.43
623.59	483.20
623.93	480.04
624.28	477.00
624.62	474.16
624.97	471.38
625.32	468.49
625.66	465.60
626.01	462.64
626.35	459.87
626.70	457.05
627.04	454.42
627.39	451.78
627.73	449.20
628.08	446.66
628.43	444.15
628.77	441.57
629.12	439.08
629.46	436.73
629.81	434.51
630.15	432.21
630.50	429.95
630.84	427.73
631.19	425.55
631.53	423.49
631.88	421.24
632.22	419.06
632.57	417.20
632.91	415.28
633.26	413.44
633.60	411.62
633.95	409.88
634.29	408.03
634.64	406.23
634.98	404.33
635.32	402.61
635.67	401.07
636.01	399.50
636.36	398.00
636.70	396.57
637.05	394.96
637.39	393.54
637.73	392.10
638.08	390.73
638.42	389.41
638.77	387.95
639.11	386.46
639.45	385.03
639.80	383.56
640.14	382.16
640.49	380.76
640.83	379.36
641.17	378.03
641.52	376.71
641.86	375.43
642.20	374.31
642.55	373.00
642.89	371.71
643.23	370.49
643.58	369.41
643.92	368.16
644.26	367.02
644.61	365.92
644.95	364.78
645.29	363.59
645.64	362.37
645.98	361.27
646.32	360.30
646.66	359.25
647.01	358.22
647.35	357.30
647.69	356.33
648.04	355.44
648.38	354.47
648.72	353.56
649.06	352.64
649.41	351.71
649.75	350.83
650.09	349.97
650.43	349.10
650.78	348.16
651.12	347.32
651.46	346.48
651.80	345.65
652.14	344.87
652.49	344.16
652.83	343.38
653.17	342.58
653.51	341.78
653.85	341.12
654.20	340.40
654.54	339.59
654.88	338.83
655.22	338.13
655.56	337.39
655.90	336.71
656.25	336.03
656.59	335.35
656.93	334.72
657.27	334.15
657.61	333.49
657.95	332.90
658.29	332.27
658.64	331.68
658.98	331.01
659.32	330.37
659.66	329.75
660.00	329.19
660.34	328.64
660.68	328.03
661.02	327.35
661.36	326.72
661.70	326.14
662.05	325.57
662.39	325.01
662.73	324.56
663.07	324.12
663.41	323.65
663.75	323.13
664.09	322.62
664.43	321.99
664.77	321.46
665.11	320.87
665.45	320.35
665.79	319.83
666.13	319.32
666.47	318.79
666.81	318.22
667.15	317.61
667.49	317.13
667.83	316.72
668.17	316.26
668.51	315.85
668.85	315.46
669.19	315.12
669.53	314.60
669.87	314.05
670.21	313.49
670.55	312.97
670.89	312.56
671.23	312.10
671.57	311.68
671.91	311.34
672.25	311.00
672.58	310.67
672.92	310.25
673.26	309.90
673.60	309.56
673.94	309.19
674.28	308.86
674.62	308.50
674.96	308.07
675.30	307.71
675.64	307.29
675.97	306.83
676.31	306.34
676.65	305.94
676.99	305.62
677.33	305.19
677.67	304.80
678.01	304.32
678.34	303.93
678.68	303.55
679.02	303.10
679.36	302.65
679.70	302.20
680.04	301.80
680.37	301.38
680.71	301.00
681.05	300.64
681.39	300.25
681.73	299.79
682.06	299.36
682.40	298.96
682.74	298.60
683.08	298.30
683.42	297.92
683.75	297.58
684.09	297.12
684.43	296.75
684.77	296.34
685.10	295.97
685.44	295.56
685.78	295.15
686.12	294.76
686.45	294.34
686.79	293.92
687.13	293.52
687.46	293.08
687.80	292.66
688.14	292.20
688.48	291.78
688.81	291.36
689.15	290.99
689.49	290.55
689.82	290.11
690.16	289.57
690.50	289.13
690.83	288.67
691.17	288.21
691.51	287.78
691.84	287.38
692.18	286.93
692.52	286.48
692.85	286.05
693.19	285.67
693.52	285.25
693.86	284.80
694.20	284.36
694.53	283.93
694.87	283.46
695.21	283.00
695.54	282.55
695.88	282.09
696.21	281.59
696.55	281.15
696.88	280.69
697.22	280.28
697.56	279.87
697.89	279.40
698.23	278.98
698.56	278.53
698.90	278.12
699.23	277.67
699.57	277.25
699.90	276.82
700.24	276.35
700.58	275.95
700.91	275.58
701.25	275.33
701.58	275.01
701.92	274.66
702.25	274.28
702.59	273.86
702.92	273.48
703.26	273.07
703.59	272.65
703.93	272.39
704.26	271.99
704.60	271.56
704.93	271.16
705.26	270.74
705.60	270.38
705.93	269.92
706.27	269.60
706.60	269.25
706.94	268.92
707.27	268.49
707.61	268.10
707.94	267.67
708.27	267.10
708.61	266.63
708.94	266.20
709.28	265.81
709.61	265.43
709.94	265.07
710.28	264.72
710.61	264.39
710.95	263.87
711.28	263.63
711.61	263.27
711.95	262.96
712.28	262.59
712.61	262.21
712.95	261.96
713.28	261.68
713.61	261.28
713.95	260.88
714.28	260.57
714.61	260.20
714.95	259.87
715.28	259.53
715.61	259.21
715.95	258.91
716.28	258.58
716.61	258.29
716.95	257.96
717.28	257.64
717.61	257.31
717.94	257.02
718.28	256.59
718.61	256.29
718.94	255.96
719.27	255.68
719.61	255.41
719.94	255.08
720.27	254.70
720.60	254.42
720.94	254.14
721.27	253.86
721.60	253.62
721.93	253.34
722.27	253.12
722.60	252.85
722.93	252.54
723.26	252.30
723.59	251.99
723.93	251.75
724.26	251.51
724.59	251.24
724.92	251.00
725.25	250.80
725.59	250.56
725.92	250.34
726.25	250.09
726.58	249.84
726.91	249.58
727.24	249.37
727.57	249.12
727.91	248.84
728.24	248.63
728.57	248.39
728.90	248.19
729.23	247.90
729.56	247.76
729.89	247.55
730.22	247.32
730.55	247.11
730.89	246.88
731.22	246.65
731.55	246.44
731.88	246.23
732.21	245.99
732.54	245.77
732.87	245.56
733.20	245.37
733.53	245.18
733.86	245.00
734.19	244.79
734.52	244.64
734.85	244.60
735.18	244.38
735.51	244.25
735.84	244.06
736.17	243.94
736.50	243.66
736.83	243.69
737.16	243.51
737.49	243.35
737.82	243.15
738.15	243.00
738.48	242.82
738.81	242.63
739.14	242.44
739.47	242.26
739.80	242.07
740.13	241.91
740.46	241.71
740.79	241.50
741.12	241.32
741.45	241.11
741.78	240.83
742.11	240.71
742.44	240.49
742.77	240.35
743.10	240.15
743.43	239.98
743.75	239.62
744.08	239.74
744.41	239.56
744.74	239.40
745.07	239.21
745.40	239.10
745.73	239.04
746.06	238.90
746.39	238.79
746.71	238.64
747.04	238.48
747.37	238.33
747.70	238.22
748.03	238.08
748.36	237.98
748.68	237.84
749.01	237.66
749.34	237.53
749.67	237.40
750.00	237.30
750.33	237.31
750.65	237.20
750.98	236.81
751.31	236.70
751.64	236.60
751.97	236.58
752.29	236.43
752.62	236.22
752.95	236.09
753.28	235.94
753.60	235.81
753.93	235.73
754.26	235.64
754.59	235.47
754.91	235.34
755.24	235.20
755.57	235.10
755.90	234.98
756.22	234.84
756.55	234.70
756.88	234.55
757.20	234.31
757.53	234.15
757.86	234.03
758.19	233.94
758.51	233.82
758.84	233.62
759.17	233.51
759.49	233.42
759.82	233.41
760.15	233.33
760.47	233.23
760.80	233.09
761.13	233.01
761.45	232.92
761.78	232.83
762.11	232.75
762.43	232.63
762.76	232.54
763.08	232.48
763.41	232.41
763.74	232.34
764.06	232.26
764.39	232.18
764.71	232.09
765.04	231.99
765.37	231.89
765.69	231.81
766.02	231.73
766.34	231.63
766.67	231.49
767.00	231.44
767.32	231.47
767.65	231.51
767.97	231.42
768.30	231.36
768.62	231.29
768.95	231.20
769.27	231.13
769.60	231.08
769.92	230.98
770.25	230.88
770.57	230.78
770.90	230.71
771.22	230.63
771.55	230.58
771.87	230.53
772.20	230.47
772.52	230.57
772.85	230.73
773.17	230.68
773.50	230.61
773.82	230.51
774.15	230.36
774.47	230.19
774.80	230.12
775.12	230.06
775.45	230.00
775.77	229.96
776.09	229.93
776.42	229.87
776.74	229.88
777.07	229.83
777.39	229.79
777.72	229.73
778.04	229.71
778.36	229.65
778.69	229.60
779.01	229.57
779.33	229.36
779.66	229.11
779.98	229.05
780.31	229.02
780.63	229.06
780.95	229.05
781.28	229.01
781.60	228.95
781.92	228.91
782.25	228.87
782.57	228.83
782.89	228.78
783.22	228.73
783.54	228.66
783.86	228.64
784.19	228.59
784.51	228.61
784.83	228.55
785.16	228.51
785.48	228.47
785.80	228.43
786.12	228.42
786.45	228.38
786.77	228.36
787.09	228.31
787.42	228.20
787.74	228.17
788.06	228.15
788.38	228.12
788.71	228.07
789.03	228.05
789.35	228.04
789.67	227.99
789.99	227.97
790.32	227.92
790.64	227.92
790.96	228.07
791.28	227.97
791.61	227.94
791.93	227.92
792.25	227.89
792.57	227.99
792.89	227.93
793.21	227.92
793.54	227.87
793.86	227.83
794.18	227.81
794.50	227.75
794.82	227.73
795.14	227.73
795.47	227.74
795.79	227.71
796.11	227.64
796.43	227.62
796.75	227.58
797.07	227.57
797.39	227.53
797.71	227.35
798.04	227.34
798.36	227.34
798.68	227.31
799.00	227.30
799.32	227.18
799.64	227.19
799.96	227.17
800.28	227.19
800.60	227.17
800.92	227.16
801.24	227.14
801.56	227.13
801.89	227.09
802.21	227.07
802.53	227.02
802.85	227.05
803.17	227.12
803.49	227.07
803.81	227.03
804.13	227.00
804.45	226.96
804.77	226.96
805.09	226.93
805.41	226.90
805.73	226.85
806.05	226.78
806.37	226.75
806.69	226.71
807.01	226.67
807.33	226.66
807.65	226.58
807.97	226.64
808.28	226.60
808.60	226.58
808.92	226.54
809.24	226.64
809.56	226.59
809.88	226.50
810.20	226.50
810.52	226.52
810.84	226.49
811.16	226.46
811.48	226.42
811.80	226.48
812.12	226.46
812.43	226.48
812.75	226.48
813.07	226.45
813.39	226.45
813.71	226.41
814.03	226.38
814.35	226.38
814.67	226.29
814.98	226.26
815.30	226.25
815.62	226.21
815.94	226.07
816.26	226.08
816.58	226.04
816.89	226.04
817.21	225.98
817.53	225.98
817.85	225.98
818.17	225.97
818.48	225.88
818.80	225.90
819.12	225.86
819.44	225.82
819.76	225.78
820.07	225.77
820.39	225.75
820.71	225.76
821.03	225.75
821.34	225.72
821.66	225.74
821.98	225.74
822.30	225.72
822.61	225.83
822.93	225.79
823.25	225.78
823.57	225.75
823.88	225.77
824.20	225.75
824.52	225.77
824.83	225.75
825.15	225.72
825.47	225.69
825.79	225.70
826.10	225.69
826.42	225.68
826.74	225.68
827.05	225.67
827.37	225.67
827.69	225.65
828.00	225.65
828.32	225.63
828.64	225.60
828.95	225.69
829.27	225.62
829.58	225.62
829.90	225.64
830.22	225.64
830.53	225.60
830.85	225.58
831.17	225.52
831.48	225.51
831.80	225.51
832.11	225.49
832.43	225.46
832.75	225.45
833.06	225.56
833.38	225.50
833.69	225.49
834.01	225.49
834.32	225.48
834.64	225.45
834.96	225.45
835.27	225.44
835.59	225.37
835.90	225.34
836.22	225.33
836.53	225.29
836.85	225.26
837.16	225.44
837.48	225.45
837.79	225.50
838.11	225.51
838.42	225.50
838.74	225.52
839.05	225.50
839.37	225.49
839.68	225.37
840.00	225.37
840.31	225.39
840.63	225.36
840.94	225.35
841.26	225.33
841.57	225.32
841.88	225.33
842.20	225.30
842.51	225.27
842.83	225.26
843.14	225.43
843.46	225.42
843.77	225.31
844.08	225.29
844.40	225.23
844.71	225.21
845.03	225.19
845.34	225.17
845.65	225.16
845.97	225.16
846.28	225.17
846.60	225.18
846.91	225.14
847.22	225.14
847.54	225.17
847.85	225.19
848.16	225.17
848.48	225.12
848.79	225.20
849.10	225.22
849.42	225.22
849.73	225.04
850.04	225.04
850.36	224.97
850.67	225.00
850.98	225.00
851.30	225.02
851.61	225.02
851.92	225.01
852.23	225.07
852.55	225.08
852.86	225.07
853.17	225.09
853.49	225.12
853.80	225.15
854.11	225.16
854.42	225.18
854.74	225.16
855.05	225.17
855.36	225.07
855.67	225.07
855.99	225.07
856.30	225.28
856.61	225.28
856.92	225.28
857.23	225.28
857.55	225.26
857.86	225.24
858.17	225.27
858.48	225.24
858.79	225.19
859.11	225.20
859.42	225.19
859.73	225.16
860.04	225.14
860.35	225.08
860.66	225.02
860.98	225.01
861.29	225.04
861.60	225.02
861.91	225.07
862.22	225.03
862.53	225.00
862.84	224.78
863.16	224.81
863.47	224.78
863.78	224.75
864.09	224.77
864.40	224.77
864.71	224.77
865.02	224.79
865.33	224.77
865.64	224.73
865.95	224.73
866.27	224.85
866.58	224.83
866.89	224.86
867.20	224.86
867.51	224.83
867.82	224.81
868.13	224.86
868.44	224.82
868.75	224.86
869.06	224.87
869.37	224.90
869.68	224.85
869.99	224.88
870.30	224.89
870.61	224.90
870.92	224.87
871.23	224.85
871.54	224.88
871.85	224.93
872.16	224.95
872.47	224.93
872.78	224.83
873.09	224.84
873.40	224.82
873.71	224.83
874.02	224.85
874.33	224.83
874.64	224.78
874.95	224.82
875.26	224.78
875.56	224.77
875.87	224.75
876.18	224.75
876.49	224.93
876.80	224.91
877.11	224.87
877.42	224.88
877.73	224.88
878.04	224.85
878.35	224.84
878.66	224.85
878.96	224.84
879.27	224.83
879.58	224.82
879.89	224.81
880.20	224.86
880.51	224.85
880.82	224.85
881.12	224.86
881.43	224.82
881.74	224.80
882.05	224.79
882.36	224.80
882.67	224.81
882.97	224.61
883.28	224.60
883.59	224.60
883.90	224.61
884.21	224.63
884.51	224.62
884.82	224.59
885.13	224.59
885.44	224.58
885.74	224.59
886.05	224.58
886.36	224.59
886.67	224.52
886.98	224.61
887.28	224.62
887.59	224.62
887.90	224.63
888.20	224.63
888.51	224.67
888.82	224.63
889.13	224.64
889.43	224.81
889.74	224.80
890.05	224.79
890.35	224.77
890.66	224.74
890.97	224.72
891.28	224.71
891.58	224.71
891.89	224.71
892.20	224.68
892.50	224.66
892.81	224.65
893.12	224.65
893.42	224.56
893.73	224.56
894.04	224.55
894.34	224.57
894.65	224.56
894.95	224.54
895.26	224.56
895.57	224.64
895.87	224.45
896.18	224.48
896.48	224.49
896.79	224.49
897.10	224.52
897.40	224.53
897.71	224.56
898.01	224.54
898.32	224.56
898.63	224.56
898.93	224.58
899.24	224.58
899.54	224.57
899.85	224.57
900.15	224.56
900.46	224.56
900.76	224.57
901.07	224.57
901.38	224.56
901.68	224.58
901.99	224.48
902.29	224.50
902.60	224.48
902.90	224.46
903.21	224.46
903.51	224.44
903.82	224.48
904.12	224.48
904.43	224.49
904.73	224.48
905.03	224.49
905.34	224.66
905.64	224.65
905.95	224.66
906.25	224.66
906.56	224.65
906.86	224.65
907.17	224.63
907.47	224.64
907.77	224.62
908.08	224.59
908.38	224.60
908.69	224.61
908.99	224.65
909.30	224.66
909.60	224.65
909.90	224.65
910.21	224.60
910.51	224.56
910.81	224.56
911.12	224.57
911.42	224.57
911.73	224.38
912.03	224.40
912.33	224.44
912.64	224.42
912.94	224.40
913.24	224.37
913.55	224.36
913.85	224.35
914.15	224.39
914.46	224.41
914.76	224.39
915.06	224.37
915.37	224.34
915.67	224.32
915.97	224.33
916.27	224.30
916.58	224.31
916.88	224.31
917.18	224.30
917.49	224.42
917.79	224.41
918.09	224.44
918.39	224.48
918.70	224.47
919.00	224.48
919.30	224.57
919.60	224.56
919.91	224.55
920.21	224.56
920.51	224.51
920.81	224.50
921.12	224.53
921.42	224.52
921.72	224.54
922.02	224.55
922.32	224.57
922.63	224.59
922.93	224.69
923.23	224.70
923.53	224.68
923.83	224.56
924.13	224.57
924.44	224.57
924.74	224.59
925.04	224.63
925.34	224.63
925.64	224.55
925.94	224.55
926.24	224.66
926.55	224.64
926.85	224.67
927.15	224.67
927.45	224.67
927.75	224.67
928.05	224.67
928.35	224.65
928.65	224.67
928.95	224.69
929.26	224.60
929.56	224.63
929.86	224.65
930.16	224.64
930.46	224.62
930.76	224.63
931.06	224.54
931.36	224.49
931.66	224.51
931.96	224.53
932.26	224.54
932.56	224.46
932.86	224.47
933.16	224.47
933.46	224.45
933.76	224.42
934.06	224.46
934.36	224.51
934.66	224.51
934.96	224.48
935.26	224.49
935.56	224.51
935.86	224.46
936.16	224.43
936.46	224.42
936.76	224.41
937.06	224.38
937.36	224.40
937.66	224.41
937.96	224.39
938.26	224.35
938.56	224.34
938.86	224.35
939.16	224.39
939.46	224.41
939.76	224.42
940.06	224.42
940.35	224.38
940.65	224.29
940.95	224.31
941.25	224.27
941.55	224.24
941.85	224.23
942.15	224.27
942.45	224.33
942.75	224.33
943.04	224.33
943.34	224.37
943.64	224.35
943.94	224.33
944.24	224.33
944.54	224.34
944.84	224.34
945.13	224.31
945.43	224.28
945.73	224.26
946.03	224.24
946.33	224.22
946.62	224.21
946.92	224.22
947.22	224.23
947.52	224.24
947.82	224.27
948.11	224.24
948.41	224.20
948.71	224.15
949.01	224.16
949.31	224.15
949.60	224.13
949.90	224.16
950.20	224.16
950.50	224.15
950.79	224.14
951.09	224.16
951.39	224.16
951.69	224.14
951.98	224.18
952.28	224.20
952.58	224.19
952.87	224.20
953.17	224.22
953.47	224.20
953.76	224.19
954.06	224.16
954.36	224.14
954.66	224.14
954.95	224.19
955.25	224.20
955.55	224.21
955.84	224.18
956.14	224.20
956.44	224.21
956.73	224.18
957.03	224.20
957.32	224.20
957.62	224.19
957.92	224.23
958.21	224.21
958.51	224.42
958.81	224.44
959.10	224.46
959.40	224.50
959.69	224.51
959.99	224.54
960.29	224.55
960.58	224.55
960.88	224.62
961.17	224.59
961.47	224.61
961.76	224.59
962.06	224.63
962.36	224.60
962.65	224.61
962.95	224.62
963.24	224.60
963.54	224.60
963.83	224.62
964.13	224.60
964.42	224.58
964.72	224.43
965.01	224.43
965.31	224.42
965.60	224.37
965.90	224.49
966.19	224.45
966.49	224.46
966.78	224.45
967.08	224.43
967.37	224.44
967.67	224.40
967.96	224.44
968.26	224.42
968.55	224.46
968.85	224.45
969.14	224.44
969.43	224.44
969.73	224.43
970.02	224.42
970.32	224.41
970.61	224.38
970.91	224.33
971.20	224.30
971.49	224.29
971.79	224.31
972.08	224.17
972.38	224.19
972.67	224.17
972.96	224.20
973.26	224.17
973.55	224.23
973.85	224.22
974.14	224.20
974.43	224.21
974.73	224.18
975.02	224.16
975.31	224.16
975.61	224.16
975.90	224.15
976.19	224.13
976.49	224.15
976.78	224.16
977.07	224.16
977.37	224.18
977.66	224.20
977.95	224.17
978.24	224.18
978.54	224.22
978.83	224.21
979.12	224.19
979.42	224.19
979.71	224.15
980.00	224.15
980.29	224.16
980.59	224.12
980.88	224.17
981.17	224.17
981.46	224.17
981.76	224.17
982.05	224.23
982.34	224.25
982.63	224.24
982.93	224.24
983.22	224.29
983.51	224.30
983.80	224.32
984.09	224.35
984.39	224.34
984.68	224.31
984.97	224.32
985.26	224.31
985.55	224.33
985.85	224.29
986.14	224.31
986.43	224.33
986.72	224.33
987.01	224.27
987.30	224.27
987.59	224.26
987.89	224.27
988.18	224.21
988.47	224.19
988.76	224.17
989.05	224.16
989.34	224.13
989.63	224.17
989.92	224.14
990.22	224.11
990.51	224.11
990.80	224.09
991.09	224.11
991.38	224.13
991.67	224.11
991.96	224.10
992.25	224.10
992.54	224.07
992.83	224.08
993.12	224.07
993.41	224.10
993.70	224.18
993.99	224.21
994.28	224.24
994.58	224.27
994.87	224.26
995.16	224.26
995.45	224.24
995.74	224.18
996.03	224.20
996.32	224.23
996.61	224.27
996.90	224.27
997.19	224.26
997.48	224.26
997.77	224.24
998.06	224.26
998.34	224.24
998.63	224.25
998.92	224.25
999.21	224.28
999.50	224.28
999.79	224.21
1000.08	224.20
1000.37	224.20
1000.66	224.17
1000.95	224.22
1001.24	224.23
1001.53	224.26
1001.82	224.26
1002.11	224.22
1002.40	224.23
1002.68	224.26
1002.97	224.40
1003.26	224.38
1003.55	224.35
1003.84	224.36
1004.13	224.42
1004.42	224.42
1004.71	224.41
1004.99	224.40
1005.28	224.44
1005.57	224.42
1005.86	224.41
1006.15	224.39
1006.44	224.37
1006.72	224.39
1007.01	224.36
1007.30	224.35
1007.59	224.33
1007.88	224.33
1008.17	224.34
1008.45	224.30
1008.74	224.23
1009.03	224.14
1009.32	224.14
1009.60	224.14
1009.89	224.13
1010.18	224.05
1010.47	224.03
1010.76	224.03
1011.04	224.03
1011.33	224.02
1011.62	224.04
1011.91	224.05
1012.19	224.06
1012.48	224.07
1012.77	224.06
1013.05	224.13
1013.34	224.13
1013.63	224.13
1013.92	224.14
1014.20	224.13
1014.49	224.14
1014.78	224.16
1015.06	224.10
1015.35	224.10
1015.64	224.13
1015.92	224.16
1016.21	224.17
1016.50	224.18
1016.78	224.20
1017.07	224.22
1017.36	224.18
1017.64	224.16
1017.93	224.17
1018.22	224.15
1018.50	224.15
1018.79	224.14
1019.08	224.07
1019.36	224.08
1019.65	224.07
1019.93	224.11
1020.22	224.14
1020.51	224.23
1020.79	224.21
1021.08	223.94
1021.36	223.81
1021.65	224.15
1021.94	224.02
1022.22	224.22
1022.51	223.82
1022.79	224.99
1023.08	224.38
1023.36	226.31
1023.65	223.68
>>>>>End Processed Spectral Data<<<<<
