SpectraSuite Data File
++++++++++++++++++++++++++++++++++++
Date: Tue Oct 06 14:27:24 EDT 2015
User: lab3
Dark Spectrum Present: No
Reference Spectrum Present: No
Number of Sampled Component Spectra: 1
Spectrometers: USB2E7196
Integration Time (usec): 66000 (USB2E7196)
Spectra Averaged: 1000 (USB2E7196)
Boxcar Smoothing: 10 (USB2E7196)
Correct for Electrical Dark: No (USB2E7196)
Strobe/Lamp Enabled: No (USB2E7196)
Correct for Detector Non-linearity: No (USB2E7196)
Correct for Stray Light: No (USB2E7196)
Number of Pixels in Processed Spectrum: 2048
>>>>>Begin Processed Spectral Data<<<<<
339.09	0.00
339.48	215.01
339.86	216.52
340.24	217.93
340.63	219.28
341.01	223.53
341.39	222.11
341.78	223.44
342.16	225.00
342.54	225.08
342.93	213.59
343.31	224.37
343.69	224.91
344.07	225.37
344.46	225.81
344.84	226.23
345.22	226.41
345.60	226.69
345.99	226.89
346.37	227.03
346.75	227.15
347.13	227.24
347.52	227.33
347.90	227.44
348.28	227.49
348.66	227.58
349.05	227.57
349.43	227.64
349.81	227.72
350.19	227.79
350.57	227.87
350.96	227.96
351.34	228.08
351.72	228.19
352.10	228.31
352.48	228.38
352.87	228.42
353.25	228.50
353.63	228.54
354.01	228.60
354.39	228.68
354.77	228.75
355.15	228.86
355.54	228.90
355.92	228.91
356.30	228.98
356.68	229.15
357.06	229.23
357.44	229.26
357.82	229.30
358.20	229.51
358.58	229.57
358.97	229.61
359.35	229.70
359.73	229.78
360.11	229.82
360.49	229.88
360.87	229.92
361.25	229.99
361.63	230.09
362.01	230.15
362.39	230.17
362.77	230.21
363.15	230.23
363.53	230.25
363.91	230.30
364.29	230.32
364.67	230.17
365.05	230.20
365.43	230.24
365.81	230.28
366.19	230.23
366.57	230.32
366.95	230.33
367.33	230.30
367.71	230.29
368.09	230.33
368.47	230.33
368.85	230.32
369.23	230.34
369.61	230.26
369.99	230.30
370.37	230.31
370.75	230.43
371.13	230.39
371.51	230.34
371.89	230.33
372.27	230.31
372.65	230.29
373.03	230.24
373.41	230.20
373.78	230.14
374.16	230.02
374.54	229.92
374.92	229.86
375.30	229.82
375.68	229.75
376.06	229.71
376.44	229.65
376.82	229.61
377.19	229.57
377.57	229.53
377.95	229.41
378.33	229.35
378.71	229.15
379.09	229.11
379.47	229.10
379.84	229.03
380.22	228.96
380.60	228.89
380.98	228.85
381.36	228.80
381.73	228.73
382.11	228.72
382.49	228.68
382.87	228.63
383.25	228.59
383.62	228.75
384.00	228.67
384.38	228.63
384.76	228.64
385.13	228.66
385.51	228.64
385.89	228.59
386.27	228.56
386.64	228.55
387.02	228.51
387.40	228.46
387.78	228.44
388.15	228.42
388.53	228.41
388.91	228.38
389.29	228.34
389.66	228.37
390.04	228.31
390.42	228.32
390.79	228.31
391.17	228.30
391.55	228.09
391.92	228.09
392.30	228.11
392.68	228.07
393.05	228.04
393.43	228.04
393.81	228.06
394.18	228.05
394.56	228.06
394.94	228.11
395.31	228.12
395.69	228.21
396.06	228.25
396.44	228.30
396.82	228.33
397.19	228.46
397.57	228.48
397.95	228.57
398.32	228.57
398.70	228.65
399.07	228.74
399.45	228.81
399.82	228.88
400.20	228.94
400.58	229.02
400.95	229.04
401.33	229.17
401.70	229.41
402.08	229.55
402.45	229.69
402.83	229.86
403.20	230.03
403.58	230.16
403.95	230.39
404.33	230.60
404.71	230.81
405.08	231.12
405.46	231.36
405.83	231.63
406.21	231.92
406.58	232.25
406.96	232.57
407.33	232.96
407.70	233.38
408.08	233.96
408.45	234.48
408.83	235.04
409.20	235.54
409.58	236.00
409.95	236.62
410.33	237.30
410.70	237.95
411.08	238.72
411.45	239.52
411.82	240.32
412.20	241.26
412.57	242.37
412.95	243.26
413.32	244.42
413.69	245.61
414.07	246.86
414.44	248.23
414.82	249.63
415.19	251.27
415.56	252.93
415.94	254.66
416.31	256.60
416.68	258.56
417.06	260.80
417.43	262.91
417.81	265.35
418.18	267.83
418.55	270.53
418.93	273.35
419.30	276.29
419.67	279.43
420.04	282.63
420.42	286.01
420.79	289.89
421.16	293.81
421.54	297.77
421.91	301.93
422.28	306.24
422.66	310.88
423.03	315.28
423.40	319.91
423.77	324.86
424.15	329.93
424.52	335.17
424.89	340.86
425.26	346.50
425.64	351.72
426.01	357.59
426.38	363.61
426.75	369.77
427.13	376.09
427.50	382.69
427.87	389.52
428.24	396.37
428.61	402.91
428.99	409.98
429.36	417.82
429.73	425.29
430.10	432.73
430.47	440.35
430.85	448.23
431.22	456.64
431.59	465.21
431.96	473.58
432.33	482.92
432.70	491.81
433.08	502.37
433.45	512.31
433.82	522.06
434.19	532.98
434.56	543.73
434.93	554.13
435.30	564.46
435.68	576.23
436.05	587.74
436.42	599.28
436.79	609.80
437.16	621.14
437.53	633.34
437.90	645.58
438.27	657.51
438.64	670.34
439.01	682.03
439.38	692.91
439.75	703.36
440.13	715.24
440.50	726.57
440.87	735.53
441.24	745.42
441.61	756.30
441.98	764.33
442.35	773.77
442.72	783.50
443.09	792.83
443.46	798.99
443.83	803.57
444.20	807.34
444.57	812.90
444.94	816.34
445.31	819.77
445.68	822.68
446.05	824.92
446.42	824.76
446.79	824.40
447.16	824.02
447.53	823.85
447.90	820.53
448.27	817.29
448.64	812.14
449.01	808.72
449.37	801.43
449.74	794.82
450.11	786.30
450.48	776.79
450.85	767.22
451.22	758.86
451.59	750.77
451.96	743.59
452.33	733.00
452.70	723.50
453.07	711.98
453.43	700.55
453.80	689.35
454.17	678.68
454.54	668.71
454.91	657.41
455.28	646.71
455.65	636.54
456.02	625.88
456.38	617.28
456.75	606.18
457.12	597.18
457.49	588.11
457.86	579.55
458.23	572.07
458.59	563.75
458.96	555.29
459.33	547.82
459.70	540.18
460.07	534.26
460.43	527.33
460.80	520.85
461.17	515.15
461.54	509.09
461.91	503.41
462.27	497.65
462.64	492.94
463.01	487.54
463.38	482.19
463.74	477.30
464.11	473.00
464.48	469.12
464.85	464.91
465.21	461.67
465.58	458.05
465.95	453.96
466.32	450.67
466.68	447.46
467.05	444.22
467.42	441.08
467.78	437.74
468.15	434.67
468.52	432.43
468.88	429.45
469.25	426.74
469.62	424.56
469.98	422.17
470.35	420.03
470.72	418.11
471.08	416.13
471.45	414.47
471.82	412.60
472.18	410.69
472.55	409.45
472.92	407.89
473.28	406.67
473.65	405.36
474.02	404.15
474.38	403.11
474.75	402.47
475.11	401.57
475.48	401.13
475.85	400.68
476.21	400.39
476.58	400.22
476.94	400.38
477.31	400.42
477.67	400.53
478.04	400.80
478.41	401.19
478.77	401.78
479.14	402.11
479.50	402.86
479.87	403.81
480.23	404.77
480.60	405.68
480.96	406.62
481.33	408.03
481.69	409.41
482.06	410.80
482.42	412.09
482.79	413.67
483.15	415.52
483.52	417.63
483.88	419.66
484.25	421.82
484.61	424.05
484.98	426.42
485.34	429.11
485.71	431.93
486.07	434.93
486.44	437.84
486.80	441.17
487.17	444.53
487.53	448.23
487.90	452.09
488.26	456.34
488.62	460.76
488.99	465.19
489.35	469.91
489.72	474.99
490.08	480.30
490.44	485.72
490.81	491.31
491.17	497.03
491.54	503.14
491.90	509.38
492.26	516.07
492.63	523.08
492.99	530.34
493.36	537.87
493.72	545.82
494.08	553.91
494.45	562.40
494.81	571.31
495.17	580.42
495.54	590.03
495.90	600.04
496.26	610.34
496.63	620.87
496.99	631.70
497.35	642.97
497.72	654.62
498.08	666.68
498.44	679.02
498.80	692.17
499.17	705.62
499.53	719.54
499.89	733.79
500.26	748.16
500.62	762.81
500.98	778.17
501.34	793.70
501.71	809.97
502.07	826.50
502.43	843.47
502.79	860.60
503.16	878.18
503.52	896.01
503.88	914.28
504.24	933.04
504.60	952.01
504.97	971.41
505.33	991.29
505.69	1012.14
506.05	1033.05
506.41	1053.83
506.78	1074.90
507.14	1096.75
507.50	1119.16
507.86	1141.94
508.22	1164.90
508.59	1187.68
508.95	1211.22
509.31	1235.21
509.67	1259.86
510.03	1284.46
510.39	1309.41
510.75	1334.38
511.12	1359.46
511.48	1384.53
511.84	1409.65
512.20	1435.19
512.56	1461.24
512.92	1487.01
513.28	1512.53
513.64	1538.41
514.00	1564.36
514.37	1590.55
514.73	1616.40
515.09	1641.73
515.45	1667.41
515.81	1693.13
516.17	1718.87
516.53	1743.99
516.89	1769.02
517.25	1794.13
517.61	1819.01
517.97	1844.08
518.33	1868.79
518.69	1893.37
519.05	1918.10
519.41	1942.74
519.77	1967.32
520.13	1991.59
520.49	2015.75
520.85	2039.85
521.21	2063.82
521.57	2088.06
521.93	2111.14
522.29	2134.81
522.65	2157.92
523.01	2180.74
523.37	2202.80
523.73	2225.31
524.09	2247.93
524.45	2270.65
524.81	2292.57
525.17	2314.18
525.53	2335.13
525.89	2356.39
526.25	2377.23
526.61	2396.94
526.97	2416.81
527.33	2436.32
527.68	2454.99
528.04	2473.06
528.40	2490.11
528.76	2507.66
529.12	2523.98
529.48	2540.77
529.84	2556.23
530.20	2572.83
530.56	2588.45
530.91	2603.95
531.27	2618.35
531.63	2631.73
531.99	2644.86
532.35	2656.38
532.71	2667.98
533.07	2679.90
533.42	2690.22
533.78	2701.22
534.14	2712.65
534.50	2722.67
534.86	2732.82
535.21	2740.93
535.57	2749.04
535.93	2757.57
536.29	2764.89
536.65	2772.56
537.00	2778.08
537.36	2783.88
537.72	2787.96
538.08	2791.73
538.44	2794.55
538.79	2797.75
539.15	2800.43
539.51	2802.42
539.87	2805.14
540.22	2805.78
540.58	2806.76
540.94	2807.49
541.29	2806.75
541.65	2804.48
542.01	2802.23
542.37	2798.90
542.72	2797.29
543.08	2794.50
543.44	2791.56
543.79	2786.84
544.15	2781.93
544.51	2777.91
544.87	2771.93
545.22	2765.42
545.58	2758.96
545.94	2753.33
546.29	2746.13
546.65	2738.16
547.01	2730.31
547.36	2722.08
547.72	2713.86
548.07	2704.44
548.43	2694.72
548.79	2683.97
549.14	2674.13
549.50	2664.21
549.86	2653.65
550.21	2641.22
550.57	2630.16
550.92	2617.23
551.28	2604.90
551.64	2592.85
551.99	2580.87
552.35	2569.08
552.70	2556.98
553.06	2545.39
553.41	2532.62
553.77	2519.42
554.13	2506.47
554.48	2492.76
554.84	2478.42
555.19	2465.01
555.55	2450.89
555.90	2436.94
556.26	2423.95
556.61	2410.26
556.97	2395.50
557.32	2381.09
557.68	2367.07
558.03	2352.30
558.39	2338.42
558.74	2324.92
559.10	2309.20
559.45	2293.87
559.81	2279.35
560.16	2264.45
560.52	2249.19
560.87	2234.75
561.23	2219.87
561.58	2205.35
561.94	2190.06
562.29	2174.98
562.64	2159.88
563.00	2144.81
563.35	2130.35
563.71	2115.72
564.06	2100.53
564.42	2085.96
564.77	2071.49
565.12	2057.33
565.48	2043.16
565.83	2028.59
566.19	2014.11
566.54	2000.24
566.89	1985.19
567.25	1969.54
567.60	1955.14
567.96	1940.19
568.31	1924.69
568.66	1909.97
569.02	1895.28
569.37	1880.69
569.72	1866.39
570.08	1851.88
570.43	1837.40
570.78	1822.09
571.14	1806.74
571.49	1791.88
571.84	1777.78
572.20	1762.44
572.55	1747.33
572.90	1731.63
573.26	1716.00
573.61	1700.11
573.96	1684.78
574.31	1670.16
574.67	1656.04
575.02	1641.10
575.37	1625.82
575.72	1610.46
576.08	1595.42
576.43	1580.47
576.78	1565.60
577.13	1550.80
577.49	1536.08
577.84	1521.28
578.19	1506.66
578.54	1492.08
578.90	1477.38
579.25	1462.15
579.60	1448.09
579.95	1433.89
580.30	1419.98
580.66	1406.12
581.01	1392.41
581.36	1378.59
581.71	1364.65
582.06	1350.77
582.42	1337.08
582.77	1323.72
583.12	1310.72
583.47	1297.58
583.82	1284.47
584.17	1271.47
584.53	1258.43
584.88	1245.80
585.23	1233.01
585.58	1220.50
585.93	1208.01
586.28	1196.12
586.63	1184.12
586.98	1171.95
587.34	1160.21
587.69	1148.15
588.04	1136.48
588.39	1124.92
588.74	1113.27
589.09	1102.00
589.44	1090.26
589.79	1079.04
590.14	1068.03
590.49	1057.02
590.84	1046.36
591.19	1035.79
591.54	1025.13
591.89	1014.35
592.25	1003.57
592.60	992.77
592.95	982.17
593.30	971.65
593.65	961.02
594.00	950.74
594.35	941.12
594.70	930.99
595.05	921.61
595.40	912.01
595.75	902.30
596.10	893.05
596.45	883.67
596.80	874.66
597.15	865.61
597.50	856.62
597.85	847.98
598.19	839.25
598.54	830.55
598.89	822.06
599.24	813.94
599.59	805.86
599.94	798.32
600.29	790.60
600.64	782.98
600.99	775.31
601.34	767.87
601.69	759.86
602.04	752.44
602.39	745.12
602.74	738.03
603.08	731.02
603.43	724.06
603.78	717.22
604.13	710.52
604.48	703.84
604.83	697.38
605.18	690.90
605.53	684.59
605.87	678.16
606.22	671.98
606.57	665.79
606.92	659.49
607.27	653.30
607.62	647.49
607.96	641.74
608.31	636.34
608.66	630.74
609.01	625.39
609.36	620.24
609.70	615.00
610.05	609.71
610.40	604.56
610.75	599.31
611.10	594.40
611.44	589.45
611.79	584.59
612.14	579.69
612.49	574.78
612.83	570.09
613.18	565.63
613.53	561.18
613.88	556.73
614.22	552.55
614.57	548.26
614.92	543.96
615.27	539.77
615.61	535.60
615.96	531.57
616.31	527.59
616.65	523.59
617.00	519.69
617.35	515.90
617.70	512.20
618.04	508.68
618.39	505.06
618.74	501.60
619.08	498.05
619.43	494.62
619.78	491.31
620.12	487.97
620.47	484.80
620.82	481.63
621.16	478.56
621.51	475.62
621.85	472.70
622.20	469.85
622.55	467.01
622.89	464.21
623.24	461.55
623.59	458.91
623.93	456.31
624.28	453.82
624.62	451.55
624.97	449.22
625.32	446.76
625.66	444.29
626.01	441.87
626.35	439.65
626.70	437.35
627.04	435.21
627.39	433.01
627.73	430.86
628.08	428.81
628.43	426.79
628.77	424.73
629.12	422.81
629.46	420.88
629.81	419.04
630.15	417.14
630.50	415.27
630.84	413.44
631.19	411.72
631.53	410.02
631.88	408.13
632.22	406.36
632.57	404.93
632.91	403.48
633.26	402.06
633.60	400.61
633.95	399.25
634.29	397.77
634.64	396.36
634.98	394.80
635.32	393.40
635.67	392.08
636.01	390.76
636.36	389.47
636.70	388.31
637.05	387.04
637.39	385.87
637.73	384.70
638.08	383.58
638.42	382.44
638.77	381.23
639.11	379.99
639.45	378.83
639.80	377.60
640.14	376.44
640.49	375.23
640.83	374.07
641.17	372.92
641.52	371.80
641.86	370.75
642.20	369.87
642.55	368.81
642.89	367.76
643.23	366.72
643.58	365.79
643.92	364.73
644.26	363.71
644.61	362.78
644.95	361.82
645.29	360.83
645.64	359.84
645.98	358.89
646.32	358.05
646.66	357.11
647.01	356.17
647.35	355.30
647.69	354.43
648.04	353.59
648.38	352.73
648.72	351.91
649.06	351.11
649.41	350.27
649.75	349.46
650.09	348.71
650.43	347.95
650.78	347.14
651.12	346.35
651.46	345.62
651.80	344.90
652.14	344.16
652.49	343.47
652.83	342.72
653.17	342.02
653.51	341.33
653.85	340.73
654.20	340.11
654.54	339.39
654.88	338.72
655.22	338.08
655.56	337.37
655.90	336.68
656.25	336.00
656.59	335.33
656.93	334.73
657.27	334.16
657.61	333.50
657.95	332.92
658.29	332.32
658.64	331.78
658.98	331.16
659.32	330.56
659.66	329.96
660.00	329.40
660.34	328.83
660.68	328.24
661.02	327.56
661.36	326.93
661.70	326.34
662.05	325.77
662.39	325.25
662.73	324.81
663.07	324.38
663.41	323.86
663.75	323.30
664.09	322.74
664.43	322.11
664.77	321.59
665.11	320.98
665.45	320.44
665.79	319.88
666.13	319.32
666.47	318.78
666.81	318.19
667.15	317.59
667.49	317.10
667.83	316.67
668.17	316.23
668.51	315.79
668.85	315.38
669.19	315.02
669.53	314.51
669.87	314.00
670.21	313.52
670.55	313.07
670.89	312.74
671.23	312.32
671.57	311.90
671.91	311.52
672.25	311.17
672.58	310.81
672.92	310.34
673.26	309.96
673.60	309.55
673.94	309.17
674.28	308.82
674.62	308.44
674.96	307.98
675.30	307.58
675.64	307.15
675.97	306.70
676.31	306.20
676.65	305.76
676.99	305.39
677.33	304.91
677.67	304.46
678.01	303.91
678.34	303.47
678.68	303.05
679.02	302.57
679.36	302.11
679.70	301.64
680.04	301.22
680.37	300.78
680.71	300.35
681.05	299.95
681.39	299.52
681.73	299.04
682.06	298.58
682.40	298.14
682.74	297.75
683.08	297.40
683.42	296.95
683.75	296.54
684.09	296.02
684.43	295.57
684.77	295.13
685.10	294.74
685.44	294.34
685.78	293.92
686.12	293.51
686.45	293.07
686.79	292.63
687.13	292.20
687.46	291.75
687.80	291.32
688.14	290.83
688.48	290.40
688.81	289.98
689.15	289.62
689.49	289.16
689.82	288.70
690.16	288.16
690.50	287.73
690.83	287.30
691.17	286.85
691.51	286.44
691.84	286.05
692.18	285.61
692.52	285.14
692.85	284.71
693.19	284.35
693.52	283.94
693.86	283.54
694.20	283.13
694.53	282.72
694.87	282.28
695.21	281.86
695.54	281.44
695.88	280.99
696.21	280.48
696.55	280.05
696.88	279.62
697.22	279.21
697.56	278.82
697.89	278.35
698.23	277.93
698.56	277.48
698.90	277.06
699.23	276.60
699.57	276.20
699.90	275.76
700.24	275.27
700.58	274.87
700.91	274.50
701.25	274.24
701.58	273.91
701.92	273.57
702.25	273.20
702.59	272.79
702.92	272.41
703.26	272.03
703.59	271.63
703.93	271.40
704.26	271.03
704.60	270.63
704.93	270.24
705.26	269.84
705.60	269.50
705.93	269.06
706.27	268.76
706.60	268.41
706.94	268.10
707.27	267.71
707.61	267.33
707.94	266.93
708.27	266.40
708.61	265.95
708.94	265.56
709.28	265.19
709.61	264.81
709.94	264.48
710.28	264.17
710.61	263.88
710.95	263.40
711.28	263.17
711.61	262.84
711.95	262.57
712.28	262.25
712.61	261.90
712.95	261.68
713.28	261.42
713.61	261.05
713.95	260.70
714.28	260.41
714.61	260.07
714.95	259.76
715.28	259.45
715.61	259.16
715.95	258.88
716.28	258.57
716.61	258.30
716.95	257.97
717.28	257.65
717.61	257.33
717.94	257.03
718.28	256.61
718.61	256.32
718.94	256.00
719.27	255.74
719.61	255.48
719.94	255.18
720.27	254.83
720.60	254.58
720.94	254.32
721.27	254.05
721.60	253.83
721.93	253.57
722.27	253.37
722.60	253.14
722.93	252.87
723.26	252.64
723.59	252.37
723.93	252.18
724.26	251.97
724.59	251.74
724.92	251.53
725.25	251.36
725.59	251.14
725.92	250.96
726.25	250.72
726.58	250.50
726.91	250.26
727.24	250.05
727.57	249.82
727.91	249.58
728.24	249.40
728.57	249.17
728.90	248.99
729.23	248.71
729.56	248.59
729.89	248.39
730.22	248.17
730.55	247.98
730.89	247.75
731.22	247.53
731.55	247.32
731.88	247.12
732.21	246.89
732.54	246.67
732.87	246.48
733.20	246.30
733.53	246.12
733.86	245.95
734.19	245.75
734.52	245.61
734.85	245.56
735.18	245.35
735.51	245.23
735.84	245.05
736.17	244.94
736.50	244.68
736.83	244.71
737.16	244.55
737.49	244.37
737.82	244.20
738.15	244.06
738.48	243.89
738.81	243.72
739.14	243.54
739.47	243.38
739.80	243.21
740.13	243.07
740.46	242.88
740.79	242.70
741.12	242.56
741.45	242.38
741.78	242.12
742.11	242.02
742.44	241.84
742.77	241.71
743.10	241.54
743.43	241.38
743.75	241.05
744.08	241.17
744.41	241.03
744.74	240.89
745.07	240.72
745.40	240.64
745.73	240.59
746.06	240.45
746.39	240.35
746.71	240.21
747.04	240.06
747.37	239.93
747.70	239.84
748.03	239.72
748.36	239.62
748.68	239.51
749.01	239.33
749.34	239.21
749.67	239.09
750.00	239.00
750.33	239.02
750.65	238.94
750.98	238.58
751.31	238.49
751.64	238.38
751.97	238.37
752.29	238.23
752.62	238.03
752.95	237.92
753.28	237.78
753.60	237.66
753.93	237.60
754.26	237.50
754.59	237.34
754.91	237.21
755.24	237.09
755.57	236.98
755.90	236.87
756.22	236.75
756.55	236.61
756.88	236.47
757.20	236.25
757.53	236.08
757.86	235.97
758.19	235.86
758.51	235.76
758.84	235.57
759.17	235.47
759.49	235.40
759.82	235.38
760.15	235.32
760.47	235.22
760.80	235.08
761.13	235.02
761.45	234.93
761.78	234.85
762.11	234.76
762.43	234.65
762.76	234.57
763.08	234.51
763.41	234.45
763.74	234.38
764.06	234.30
764.39	234.24
764.71	234.16
765.04	234.07
765.37	233.97
765.69	233.91
766.02	233.82
766.34	233.74
766.67	233.60
767.00	233.54
767.32	233.57
767.65	233.62
767.97	233.55
768.30	233.49
768.62	233.42
768.95	233.33
769.27	233.27
769.60	233.22
769.92	233.13
770.25	233.02
770.57	232.94
770.90	232.87
771.22	232.80
771.55	232.75
771.87	232.70
772.20	232.64
772.52	232.74
772.85	232.91
773.17	232.85
773.50	232.80
773.82	232.73
774.15	232.58
774.47	232.41
774.80	232.33
775.12	232.29
775.45	232.25
775.77	232.21
776.09	232.18
776.42	232.13
776.74	232.14
777.07	232.10
777.39	232.08
777.72	232.02
778.04	232.00
778.36	231.94
778.69	231.91
779.01	231.89
779.33	231.68
779.66	231.44
779.98	231.38
780.31	231.35
780.63	231.39
780.95	231.37
781.28	231.34
781.60	231.30
781.92	231.24
782.25	231.20
782.57	231.16
782.89	231.11
783.22	231.06
783.54	230.99
783.86	230.97
784.19	230.92
784.51	230.94
784.83	230.88
785.16	230.85
785.48	230.81
785.80	230.77
786.12	230.75
786.45	230.71
786.77	230.70
787.09	230.65
787.42	230.55
787.74	230.53
788.06	230.51
788.38	230.47
788.71	230.44
789.03	230.42
789.35	230.42
789.67	230.37
789.99	230.35
790.32	230.31
790.64	230.29
790.96	230.43
791.28	230.34
791.61	230.30
791.93	230.29
792.25	230.26
792.57	230.36
792.89	230.31
793.21	230.30
793.54	230.25
793.86	230.22
794.18	230.21
794.50	230.15
794.82	230.12
795.14	230.13
795.47	230.14
795.79	230.12
796.11	230.05
796.43	230.03
796.75	230.02
797.07	230.02
797.39	229.98
797.71	229.82
798.04	229.80
798.36	229.81
798.68	229.79
799.00	229.77
799.32	229.66
799.64	229.68
799.96	229.66
800.28	229.68
800.60	229.65
800.92	229.65
801.24	229.63
801.56	229.63
801.89	229.59
802.21	229.58
802.53	229.53
802.85	229.55
803.17	229.61
803.49	229.55
803.81	229.51
804.13	229.48
804.45	229.45
804.77	229.45
805.09	229.43
805.41	229.40
805.73	229.35
806.05	229.30
806.37	229.27
806.69	229.24
807.01	229.20
807.33	229.20
807.65	229.12
807.97	229.19
808.28	229.15
808.60	229.12
808.92	229.09
809.24	229.18
809.56	229.15
809.88	229.07
810.20	229.07
810.52	229.09
810.84	229.05
811.16	229.02
811.48	228.99
811.80	229.03
812.12	229.02
812.43	229.03
812.75	229.04
813.07	228.99
813.39	228.99
813.71	228.96
814.03	228.93
814.35	228.93
814.67	228.84
814.98	228.81
815.30	228.80
815.62	228.77
815.94	228.64
816.26	228.64
816.58	228.59
816.89	228.60
817.21	228.55
817.53	228.56
817.85	228.55
818.17	228.53
818.48	228.46
818.80	228.47
819.12	228.43
819.44	228.38
819.76	228.35
820.07	228.34
820.39	228.33
820.71	228.33
821.03	228.32
821.34	228.30
821.66	228.33
821.98	228.34
822.30	228.33
822.61	228.43
822.93	228.39
823.25	228.38
823.57	228.34
823.88	228.35
824.20	228.34
824.52	228.36
824.83	228.35
825.15	228.31
825.47	228.30
825.79	228.31
826.10	228.30
826.42	228.29
826.74	228.28
827.05	228.26
827.37	228.26
827.69	228.23
828.00	228.22
828.32	228.19
828.64	228.16
828.95	228.24
829.27	228.17
829.58	228.18
829.90	228.20
830.22	228.20
830.53	228.17
830.85	228.15
831.17	228.10
831.48	228.09
831.80	228.10
832.11	228.07
832.43	228.04
832.75	228.03
833.06	228.14
833.38	228.11
833.69	228.10
834.01	228.09
834.32	228.08
834.64	228.06
834.96	228.06
835.27	228.06
835.59	228.00
835.90	227.98
836.22	227.95
836.53	227.91
836.85	227.89
837.16	228.06
837.48	228.05
837.79	228.10
838.11	228.11
838.42	228.11
838.74	228.12
839.05	228.10
839.37	228.09
839.68	227.96
840.00	227.94
840.31	227.97
840.63	227.95
840.94	227.94
841.26	227.93
841.57	227.91
841.88	227.92
842.20	227.88
842.51	227.84
842.83	227.83
843.14	227.99
843.46	227.99
843.77	227.87
844.08	227.86
844.40	227.79
844.71	227.76
845.03	227.74
845.34	227.72
845.65	227.72
845.97	227.72
846.28	227.74
846.60	227.75
846.91	227.71
847.22	227.71
847.54	227.75
847.85	227.75
848.16	227.74
848.48	227.69
848.79	227.76
849.10	227.78
849.42	227.79
849.73	227.61
850.04	227.61
850.36	227.55
850.67	227.59
850.98	227.60
851.30	227.62
851.61	227.62
851.92	227.61
852.23	227.66
852.55	227.67
852.86	227.66
853.17	227.67
853.49	227.70
853.80	227.73
854.11	227.74
854.42	227.76
854.74	227.74
855.05	227.76
855.36	227.68
855.67	227.69
855.99	227.69
856.30	227.89
856.61	227.89
856.92	227.90
857.23	227.90
857.55	227.87
857.86	227.86
858.17	227.89
858.48	227.86
858.79	227.82
859.11	227.83
859.42	227.83
859.73	227.81
860.04	227.80
860.35	227.75
860.66	227.70
860.98	227.70
861.29	227.72
861.60	227.71
861.91	227.76
862.22	227.73
862.53	227.70
862.84	227.49
863.16	227.53
863.47	227.50
863.78	227.47
864.09	227.49
864.40	227.49
864.71	227.50
865.02	227.53
865.33	227.49
865.64	227.45
865.95	227.44
866.27	227.56
866.58	227.53
866.89	227.55
867.20	227.54
867.51	227.50
867.82	227.49
868.13	227.54
868.44	227.49
868.75	227.51
869.06	227.53
869.37	227.55
869.68	227.51
869.99	227.54
870.30	227.55
870.61	227.56
870.92	227.55
871.23	227.53
871.54	227.55
871.85	227.62
872.16	227.63
872.47	227.62
872.78	227.51
873.09	227.53
873.40	227.51
873.71	227.53
874.02	227.55
874.33	227.53
874.64	227.49
874.95	227.53
875.26	227.49
875.56	227.48
875.87	227.47
876.18	227.45
876.49	227.61
876.80	227.60
877.11	227.56
877.42	227.56
877.73	227.56
878.04	227.52
878.35	227.52
878.66	227.52
878.96	227.52
879.27	227.53
879.58	227.52
879.89	227.50
880.20	227.55
880.51	227.54
880.82	227.53
881.12	227.54
881.43	227.50
881.74	227.47
882.05	227.47
882.36	227.47
882.67	227.49
882.97	227.31
883.28	227.29
883.59	227.29
883.90	227.31
884.21	227.33
884.51	227.32
884.82	227.29
885.13	227.28
885.44	227.27
885.74	227.26
886.05	227.25
886.36	227.25
886.67	227.19
886.98	227.28
887.28	227.30
887.59	227.30
887.90	227.30
888.20	227.30
888.51	227.33
888.82	227.31
889.13	227.31
889.43	227.46
889.74	227.46
890.05	227.45
890.35	227.44
890.66	227.41
890.97	227.39
891.28	227.38
891.58	227.39
891.89	227.39
892.20	227.38
892.50	227.36
892.81	227.35
893.12	227.34
893.42	227.25
893.73	227.25
894.04	227.25
894.34	227.26
894.65	227.26
894.95	227.24
895.26	227.26
895.57	227.34
895.87	227.16
896.18	227.19
896.48	227.20
896.79	227.20
897.10	227.22
897.40	227.22
897.71	227.25
898.01	227.23
898.32	227.25
898.63	227.24
898.93	227.25
899.24	227.26
899.54	227.25
899.85	227.26
900.15	227.25
900.46	227.25
900.76	227.26
901.07	227.26
901.38	227.24
901.68	227.25
901.99	227.15
902.29	227.16
902.60	227.15
902.90	227.14
903.21	227.14
903.51	227.12
903.82	227.15
904.12	227.16
904.43	227.17
904.73	227.15
905.03	227.17
905.34	227.34
905.64	227.34
905.95	227.33
906.25	227.32
906.56	227.32
906.86	227.32
907.17	227.30
907.47	227.32
907.77	227.31
908.08	227.28
908.38	227.30
908.69	227.31
908.99	227.35
909.30	227.36
909.60	227.36
909.90	227.36
910.21	227.31
910.51	227.28
910.81	227.29
911.12	227.30
911.42	227.30
911.73	227.11
912.03	227.13
912.33	227.16
912.64	227.15
912.94	227.13
913.24	227.10
913.55	227.07
913.85	227.05
914.15	227.09
914.46	227.11
914.76	227.09
915.06	227.07
915.37	227.03
915.67	227.01
915.97	227.01
916.27	226.98
916.58	226.99
916.88	227.00
917.18	226.98
917.49	227.10
917.79	227.08
918.09	227.11
918.39	227.16
918.70	227.15
919.00	227.16
919.30	227.24
919.60	227.24
919.91	227.24
920.21	227.26
920.51	227.23
920.81	227.22
921.12	227.25
921.42	227.26
921.72	227.28
922.02	227.30
922.32	227.32
922.63	227.32
922.93	227.43
923.23	227.43
923.53	227.41
923.83	227.28
924.13	227.31
924.44	227.31
924.74	227.34
925.04	227.37
925.34	227.37
925.64	227.29
925.94	227.29
926.24	227.38
926.55	227.35
926.85	227.36
927.15	227.35
927.45	227.33
927.75	227.32
928.05	227.31
928.35	227.30
928.65	227.32
928.95	227.34
929.26	227.24
929.56	227.27
929.86	227.30
930.16	227.28
930.46	227.26
930.76	227.26
931.06	227.17
931.36	227.11
931.66	227.15
931.96	227.17
932.26	227.18
932.56	227.10
932.86	227.12
933.16	227.13
933.46	227.11
933.76	227.09
934.06	227.11
934.36	227.17
934.66	227.16
934.96	227.13
935.26	227.14
935.56	227.16
935.86	227.11
936.16	227.07
936.46	227.06
936.76	227.06
937.06	227.03
937.36	227.04
937.66	227.06
937.96	227.03
938.26	226.99
938.56	226.98
938.86	226.99
939.16	227.02
939.46	227.03
939.76	227.04
940.06	227.04
940.35	227.00
940.65	226.91
940.95	226.93
941.25	226.90
941.55	226.87
941.85	226.84
942.15	226.89
942.45	226.94
942.75	226.93
943.04	226.93
943.34	226.96
943.64	226.94
943.94	226.92
944.24	226.92
944.54	226.93
944.84	226.93
945.13	226.91
945.43	226.89
945.73	226.88
946.03	226.87
946.33	226.85
946.62	226.86
946.92	226.87
947.22	226.87
947.52	226.89
947.82	226.92
948.11	226.92
948.41	226.88
948.71	226.83
949.01	226.85
949.31	226.83
949.60	226.82
949.90	226.86
950.20	226.86
950.50	226.85
950.79	226.84
951.09	226.87
951.39	226.87
951.69	226.85
951.98	226.88
952.28	226.90
952.58	226.89
952.87	226.89
953.17	226.90
953.47	226.88
953.76	226.87
954.06	226.84
954.36	226.81
954.66	226.81
954.95	226.86
955.25	226.86
955.55	226.88
955.84	226.85
956.14	226.86
956.44	226.88
956.73	226.86
957.03	226.86
957.32	226.86
957.62	226.86
957.92	226.90
958.21	226.87
958.51	227.07
958.81	227.10
959.10	227.12
959.40	227.15
959.69	227.16
959.99	227.20
960.29	227.20
960.58	227.20
960.88	227.27
961.17	227.25
961.47	227.28
961.76	227.26
962.06	227.29
962.36	227.26
962.65	227.26
962.95	227.27
963.24	227.27
963.54	227.26
963.83	227.27
964.13	227.25
964.42	227.23
964.72	227.09
965.01	227.09
965.31	227.07
965.60	227.01
965.90	227.12
966.19	227.07
966.49	227.08
966.78	227.09
967.08	227.06
967.37	227.05
967.67	227.00
967.96	227.03
968.26	227.04
968.55	227.06
968.85	227.05
969.14	227.05
969.43	227.04
969.73	227.02
970.02	227.01
970.32	227.00
970.61	226.97
970.91	226.91
971.20	226.88
971.49	226.87
971.79	226.89
972.08	226.77
972.38	226.78
972.67	226.77
972.96	226.78
973.26	226.74
973.55	226.80
973.85	226.79
974.14	226.77
974.43	226.79
974.73	226.76
975.02	226.75
975.31	226.75
975.61	226.76
975.90	226.76
976.19	226.75
976.49	226.77
976.78	226.79
977.07	226.78
977.37	226.79
977.66	226.80
977.95	226.78
978.24	226.80
978.54	226.84
978.83	226.83
979.12	226.83
979.42	226.84
979.71	226.79
980.00	226.79
980.29	226.79
980.59	226.75
980.88	226.79
981.17	226.78
981.46	226.78
981.76	226.78
982.05	226.82
982.34	226.84
982.63	226.84
982.93	226.84
983.22	226.89
983.51	226.90
983.80	226.93
984.09	226.95
984.39	226.94
984.68	226.92
984.97	226.92
985.26	226.89
985.55	226.92
985.85	226.88
986.14	226.92
986.43	226.95
986.72	226.95
987.01	226.90
987.30	226.90
987.59	226.90
987.89	226.91
988.18	226.86
988.47	226.83
988.76	226.81
989.05	226.78
989.34	226.77
989.63	226.81
989.92	226.78
990.22	226.76
990.51	226.75
990.80	226.74
991.09	226.76
991.38	226.79
991.67	226.76
991.96	226.75
992.25	226.75
992.54	226.72
992.83	226.72
993.12	226.73
993.41	226.75
993.70	226.82
993.99	226.86
994.28	226.88
994.58	226.92
994.87	226.92
995.16	226.93
995.45	226.90
995.74	226.85
996.03	226.87
996.32	226.90
996.61	226.94
996.90	226.94
997.19	226.94
997.48	226.94
997.77	226.94
998.06	226.95
998.34	226.93
998.63	226.93
998.92	226.95
999.21	226.97
999.50	226.97
999.79	226.91
1000.08	226.90
1000.37	226.89
1000.66	226.86
1000.95	226.90
1001.24	226.90
1001.53	226.93
1001.82	226.93
1002.11	226.88
1002.40	226.89
1002.68	226.92
1002.97	227.04
1003.26	227.02
1003.55	226.99
1003.84	227.02
1004.13	227.08
1004.42	227.08
1004.71	227.08
1004.99	227.06
1005.28	227.10
1005.57	227.09
1005.86	227.08
1006.15	227.07
1006.44	227.04
1006.72	227.06
1007.01	227.03
1007.30	227.04
1007.59	227.02
1007.88	227.02
1008.17	227.05
1008.45	227.00
1008.74	226.93
1009.03	226.85
1009.32	226.85
1009.60	226.85
1009.89	226.82
1010.18	226.74
1010.47	226.73
1010.76	226.73
1011.04	226.73
1011.33	226.72
1011.62	226.74
1011.91	226.74
1012.19	226.75
1012.48	226.77
1012.77	226.76
1013.05	226.81
1013.34	226.81
1013.63	226.80
1013.92	226.82
1014.20	226.80
1014.49	226.82
1014.78	226.84
1015.06	226.78
1015.35	226.78
1015.64	226.81
1015.92	226.83
1016.21	226.84
1016.50	226.84
1016.78	226.86
1017.07	226.87
1017.36	226.84
1017.64	226.82
1017.93	226.84
1018.22	226.81
1018.50	226.81
1018.79	226.81
1019.08	226.75
1019.36	226.76
1019.65	226.75
1019.93	226.79
1020.22	226.82
1020.51	226.92
1020.79	226.90
1021.08	226.51
1021.36	226.59
1021.65	226.88
1021.94	226.67
1022.22	227.00
1022.51	226.48
1022.79	227.66
1023.08	226.97
1023.36	229.08
1023.65	226.44
>>>>>End Processed Spectral Data<<<<<
