SpectraSuite Data File
++++++++++++++++++++++++++++++++++++
Date: Wed Oct 07 09:15:34 EDT 2015
User: lab3
Dark Spectrum Present: No
Reference Spectrum Present: No
Number of Sampled Component Spectra: 1
Spectrometers: USB2E7196
Integration Time (usec): 66000 (USB2E7196)
Spectra Averaged: 10000 (USB2E7196)
Boxcar Smoothing: 10 (USB2E7196)
Correct for Electrical Dark: No (USB2E7196)
Strobe/Lamp Enabled: No (USB2E7196)
Correct for Detector Non-linearity: No (USB2E7196)
Correct for Stray Light: No (USB2E7196)
Number of Pixels in Processed Spectrum: 2048
>>>>>Begin Processed Spectral Data<<<<<
339.09	0.00
339.48	212.19
339.86	213.66
340.24	215.00
340.63	216.45
341.01	220.62
341.39	219.19
341.78	220.74
342.16	221.98
342.54	222.22
342.93	210.85
343.31	221.50
343.69	222.04
344.07	222.50
344.46	222.95
344.84	223.36
345.22	223.55
345.60	223.83
345.99	224.04
346.37	224.18
346.75	224.31
347.13	224.40
347.52	224.50
347.90	224.63
348.28	224.68
348.66	224.77
349.05	224.76
349.43	224.84
349.81	224.92
350.19	224.99
350.57	225.07
350.96	225.17
351.34	225.29
351.72	225.40
352.10	225.52
352.48	225.60
352.87	225.65
353.25	225.71
353.63	225.77
354.01	225.82
354.39	225.90
354.77	225.98
355.15	226.10
355.54	226.14
355.92	226.15
356.30	226.22
356.68	226.41
357.06	226.48
357.44	226.52
357.82	226.57
358.20	226.80
358.58	226.85
358.97	226.92
359.35	227.02
359.73	227.12
360.11	227.17
360.49	227.24
360.87	227.28
361.25	227.36
361.63	227.47
362.01	227.52
362.39	227.55
362.77	227.60
363.15	227.63
363.53	227.66
363.91	227.70
364.29	227.73
364.67	227.57
365.05	227.60
365.43	227.64
365.81	227.68
366.19	227.63
366.57	227.71
366.95	227.71
367.33	227.67
367.71	227.66
368.09	227.69
368.47	227.69
368.85	227.68
369.23	227.70
369.61	227.62
369.99	227.67
370.37	227.67
370.75	227.80
371.13	227.76
371.51	227.72
371.89	227.71
372.27	227.69
372.65	227.68
373.03	227.64
373.41	227.59
373.78	227.54
374.16	227.41
374.54	227.31
374.92	227.26
375.30	227.22
375.68	227.14
376.06	227.10
376.44	227.05
376.82	227.01
377.19	226.97
377.57	226.92
377.95	226.81
378.33	226.75
378.71	226.54
379.09	226.50
379.47	226.48
379.84	226.41
380.22	226.35
380.60	226.27
380.98	226.23
381.36	226.18
381.73	226.11
382.11	226.10
382.49	226.07
382.87	226.01
383.25	225.97
383.62	226.15
384.00	226.07
384.38	226.04
384.76	226.04
385.13	226.06
385.51	226.03
385.89	225.97
386.27	225.94
386.64	225.94
387.02	225.88
387.40	225.84
387.78	225.82
388.15	225.81
388.53	225.78
388.91	225.76
389.29	225.73
389.66	225.74
390.04	225.69
390.42	225.70
390.79	225.71
391.17	225.69
391.55	225.47
391.92	225.47
392.30	225.49
392.68	225.44
393.05	225.42
393.43	225.43
393.81	225.46
394.18	225.44
394.56	225.46
394.94	225.52
395.31	225.52
395.69	225.61
396.06	225.65
396.44	225.70
396.82	225.73
397.19	225.87
397.57	225.89
397.95	225.97
398.32	225.97
398.70	226.04
399.07	226.14
399.45	226.21
399.82	226.28
400.20	226.34
400.58	226.44
400.95	226.47
401.33	226.60
401.70	226.84
402.08	226.99
402.45	227.13
402.83	227.31
403.20	227.49
403.58	227.63
403.95	227.85
404.33	228.08
404.71	228.31
405.08	228.63
405.46	228.90
405.83	229.19
406.21	229.50
406.58	229.85
406.96	230.19
407.33	230.58
407.70	231.03
408.08	231.64
408.45	232.17
408.83	232.74
409.20	233.27
409.58	233.75
409.95	234.41
410.33	235.13
410.70	235.81
411.08	236.60
411.45	237.45
411.82	238.31
412.20	239.29
412.57	240.45
412.95	241.39
413.32	242.60
413.69	243.83
414.07	245.15
414.44	246.59
414.82	248.06
415.19	249.77
415.56	251.52
415.94	253.34
416.31	255.38
416.68	257.42
417.06	259.78
417.43	262.00
417.81	264.55
418.18	267.14
418.55	269.98
418.93	272.93
419.30	276.01
419.67	279.28
420.04	282.64
420.42	286.16
420.79	290.21
421.16	294.30
421.54	298.43
421.91	302.77
422.28	307.27
422.66	312.10
423.03	316.70
423.40	321.52
423.77	326.69
424.15	331.97
424.52	337.46
424.89	343.40
425.26	349.29
425.64	354.76
426.01	360.90
426.38	367.17
426.75	373.63
427.13	380.24
427.50	387.15
427.87	394.34
428.24	401.58
428.61	408.50
428.99	415.98
429.36	424.21
429.73	432.08
430.10	439.93
430.47	447.97
430.85	456.27
431.22	465.09
431.59	474.16
431.96	483.04
432.33	492.90
432.70	502.28
433.08	513.39
433.45	523.86
433.82	534.24
434.19	545.87
434.56	557.32
434.93	568.42
435.30	579.44
435.68	591.93
436.05	604.17
436.42	616.44
436.79	627.66
437.16	639.87
437.53	652.88
437.90	665.91
438.27	678.69
438.64	692.55
439.01	705.16
439.38	716.73
439.75	727.90
440.13	740.67
440.50	752.78
440.87	762.53
441.24	773.21
441.61	784.93
441.98	793.63
442.35	803.94
442.72	814.45
443.09	824.45
443.46	831.01
443.83	836.01
444.20	840.20
444.57	846.16
444.94	849.76
445.31	853.50
445.68	856.74
446.05	859.24
446.42	859.09
446.79	858.65
447.16	858.30
447.53	858.03
447.90	854.41
448.27	851.01
448.64	845.52
449.01	841.80
449.37	833.85
449.74	826.61
450.11	817.26
450.48	806.95
450.85	796.59
451.22	787.73
451.59	778.96
451.96	771.02
452.33	759.53
452.70	749.28
453.07	736.85
453.43	724.43
453.80	712.30
454.17	700.65
454.54	689.95
454.91	677.86
455.28	666.41
455.65	655.59
456.02	644.10
456.38	634.87
456.75	623.06
457.12	613.55
457.49	603.96
457.86	594.86
458.23	586.84
458.59	578.03
458.96	568.98
459.33	561.05
459.70	552.96
460.07	546.79
460.43	539.54
460.80	532.78
461.17	526.88
461.54	520.52
461.91	514.54
462.27	508.45
462.64	503.49
463.01	497.86
463.38	492.18
463.74	487.05
464.11	482.48
464.48	478.35
464.85	473.89
465.21	470.48
465.58	466.71
465.95	462.43
466.32	459.03
466.68	455.72
467.05	452.38
467.42	449.13
467.78	445.65
468.15	442.42
468.52	440.05
468.88	436.89
469.25	434.02
469.62	431.75
469.98	429.30
470.35	427.11
470.72	425.10
471.08	423.09
471.45	421.41
471.82	419.51
472.18	417.54
472.55	416.25
472.92	414.66
473.28	413.40
473.65	412.06
474.02	410.75
474.38	409.63
474.75	408.95
475.11	408.04
475.48	407.60
475.85	407.10
476.21	406.81
476.58	406.59
476.94	406.72
477.31	406.71
477.67	406.74
478.04	406.99
478.41	407.38
478.77	407.95
479.14	408.29
479.50	409.05
479.87	410.04
480.23	411.01
480.60	411.92
480.96	412.83
481.33	414.26
481.69	415.66
482.06	417.04
482.42	418.30
482.79	419.87
483.15	421.74
483.52	423.86
483.88	425.88
484.25	428.02
484.61	430.27
484.98	432.70
485.34	435.43
485.71	438.27
486.07	441.35
486.44	444.36
486.80	447.77
487.17	451.25
487.53	455.04
487.90	459.00
488.26	463.32
488.62	467.90
488.99	472.47
489.35	477.27
489.72	482.44
490.08	487.87
490.44	493.42
490.81	499.19
491.17	505.13
491.54	511.52
491.90	518.03
492.26	525.02
492.63	532.35
492.99	540.03
493.36	547.88
493.72	556.10
494.08	564.57
494.45	573.45
494.81	582.73
495.17	592.24
495.54	602.31
495.90	612.83
496.26	623.53
496.63	634.56
496.99	645.98
497.35	657.95
497.72	670.24
498.08	682.85
498.44	695.84
498.80	709.52
499.17	723.49
499.53	737.94
499.89	752.82
500.26	767.97
500.62	783.47
500.98	799.90
501.34	816.37
501.71	833.58
502.07	851.15
502.43	869.21
502.79	887.59
503.16	906.42
503.52	925.46
503.88	944.93
504.24	964.90
504.60	985.13
504.97	1006.00
505.33	1027.39
505.69	1049.91
506.05	1072.64
506.41	1095.41
506.78	1118.34
507.14	1141.78
507.50	1165.76
507.86	1190.12
508.22	1214.69
508.59	1239.16
508.95	1264.68
509.31	1290.78
509.67	1317.58
510.03	1344.36
510.39	1370.99
510.75	1397.69
511.12	1424.67
511.48	1452.07
511.84	1479.38
512.20	1507.05
512.56	1535.84
512.92	1564.51
513.28	1592.42
513.64	1620.79
514.00	1649.54
514.37	1678.59
514.73	1707.73
515.09	1736.18
515.45	1764.80
515.81	1793.86
516.17	1822.60
516.53	1850.64
516.89	1878.35
517.25	1906.29
517.61	1934.08
517.97	1962.49
518.33	1990.47
518.69	2018.38
519.05	2046.54
519.41	2074.87
519.77	2103.40
520.13	2130.33
520.49	2157.14
520.85	2184.42
521.21	2211.07
521.57	2238.04
521.93	2263.81
522.29	2290.30
522.65	2316.59
523.01	2342.67
523.37	2367.85
523.73	2393.89
524.09	2419.57
524.45	2445.12
524.81	2470.04
525.17	2494.80
525.53	2518.51
525.89	2542.71
526.25	2566.68
526.61	2588.81
526.97	2610.98
527.33	2632.72
527.68	2654.55
528.04	2675.92
528.40	2696.25
528.76	2716.49
529.12	2736.17
529.48	2756.72
529.84	2774.47
530.20	2792.41
530.56	2809.73
530.91	2827.04
531.27	2843.62
531.63	2859.36
531.99	2874.53
532.35	2889.54
532.71	2904.18
533.07	2919.38
533.42	2932.49
533.78	2945.66
534.14	2960.01
534.50	2973.30
534.86	2987.24
535.21	2998.60
535.57	3009.93
535.93	3020.67
536.29	3029.84
536.65	3038.80
537.00	3046.46
537.36	3055.20
537.72	3063.16
538.08	3070.72
538.44	3076.86
538.79	3082.94
539.15	3087.74
539.51	3091.83
539.87	3094.53
540.22	3095.41
540.58	3096.60
540.94	3098.41
541.29	3099.30
541.65	3098.67
542.01	3097.59
542.37	3094.68
542.72	3093.67
543.08	3090.79
543.44	3088.13
543.79	3085.30
544.15	3081.71
544.51	3077.81
544.87	3073.12
545.22	3067.38
545.58	3061.02
545.94	3055.18
546.29	3047.86
546.65	3040.58
547.01	3033.47
547.36	3027.00
547.72	3020.75
548.07	3012.64
548.43	3003.37
548.79	2993.61
549.14	2984.19
549.50	2974.93
549.86	2964.87
550.21	2952.85
550.57	2942.26
550.92	2930.07
551.28	2917.90
551.64	2906.03
551.99	2894.06
552.35	2881.61
552.70	2869.09
553.06	2857.14
553.41	2844.76
553.77	2831.85
554.13	2819.04
554.48	2805.18
554.84	2789.93
555.19	2775.04
555.55	2760.27
555.90	2746.04
556.26	2732.11
556.61	2717.08
556.97	2700.86
557.32	2685.03
557.68	2669.68
558.03	2653.83
558.39	2638.82
558.74	2624.68
559.10	2608.65
559.45	2592.53
559.81	2577.02
560.16	2561.06
560.52	2544.78
560.87	2528.87
561.23	2512.55
561.58	2496.82
561.94	2480.67
562.29	2464.18
562.64	2447.89
563.00	2431.55
563.35	2415.48
563.71	2398.93
564.06	2382.59
564.42	2366.80
564.77	2351.13
565.12	2335.12
565.48	2318.69
565.83	2302.34
566.19	2285.86
566.54	2269.59
566.89	2252.93
567.25	2236.38
567.60	2220.83
567.96	2204.71
568.31	2186.93
568.66	2169.81
569.02	2153.40
569.37	2137.57
569.72	2122.27
570.08	2106.62
570.43	2090.26
570.78	2073.62
571.14	2057.02
571.49	2040.34
571.84	2023.87
572.20	2006.17
572.55	1989.13
572.90	1972.33
573.26	1955.82
573.61	1938.61
573.96	1921.92
574.31	1905.10
574.67	1887.85
575.02	1870.13
575.37	1852.43
575.72	1835.70
576.08	1818.89
576.43	1801.07
576.78	1783.57
577.13	1766.32
577.49	1749.22
577.84	1732.75
578.19	1715.83
578.54	1698.78
578.90	1681.67
579.25	1664.37
579.60	1648.40
579.95	1632.14
580.30	1615.84
580.66	1599.21
581.01	1582.69
581.36	1566.17
581.71	1550.57
582.06	1535.10
582.42	1519.49
582.77	1504.23
583.12	1489.21
583.47	1474.30
583.82	1459.55
584.17	1444.17
584.53	1428.94
584.88	1414.08
585.23	1399.03
585.58	1384.41
585.93	1369.63
586.28	1355.87
586.63	1342.04
586.98	1327.66
587.34	1313.77
587.69	1299.71
588.04	1285.87
588.39	1272.35
588.74	1258.51
589.09	1244.78
589.44	1230.67
589.79	1217.28
590.14	1203.90
590.49	1190.54
590.84	1177.39
591.19	1164.68
591.54	1152.15
591.89	1139.23
592.25	1126.61
592.60	1113.88
592.95	1101.28
593.30	1089.20
593.65	1076.79
594.00	1064.72
594.35	1053.58
594.70	1041.68
595.05	1030.40
595.40	1019.06
595.75	1007.54
596.10	996.68
596.45	985.70
596.80	975.31
597.15	964.79
597.50	954.23
597.85	944.13
598.19	933.97
598.54	923.78
598.89	914.09
599.24	904.83
599.59	895.28
599.94	886.47
600.29	877.77
600.64	868.81
600.99	859.74
601.34	851.06
601.69	841.80
602.04	833.55
602.39	825.19
602.74	817.06
603.08	809.03
603.43	801.03
603.78	793.05
604.13	785.04
604.48	777.05
604.83	769.43
605.18	761.73
605.53	754.28
605.87	746.84
606.22	739.53
606.57	732.11
606.92	724.68
607.27	717.27
607.62	709.98
607.96	702.97
608.31	696.52
608.66	689.87
609.01	683.54
609.36	677.19
609.70	670.82
610.05	664.41
610.40	658.21
610.75	651.96
611.10	645.97
611.44	639.98
611.79	634.15
612.14	628.19
612.49	622.33
612.83	616.78
613.18	611.29
613.53	605.80
613.88	600.44
614.22	595.49
614.57	590.45
614.92	585.55
615.27	580.76
615.61	575.82
615.96	570.99
616.31	566.13
616.65	561.40
617.00	556.80
617.35	552.29
617.70	547.81
618.04	543.44
618.39	539.16
618.74	535.16
619.08	531.11
619.43	527.20
619.78	523.28
620.12	519.27
620.47	515.47
620.82	511.79
621.16	508.15
621.51	504.55
621.85	500.95
622.20	497.38
622.55	493.86
622.89	490.37
623.24	487.05
623.59	483.80
623.93	480.64
624.28	477.58
624.62	474.73
624.97	471.92
625.32	469.03
625.66	466.12
626.01	463.15
626.35	460.36
626.70	457.53
627.04	454.90
627.39	452.26
627.73	449.68
628.08	447.13
628.43	444.60
628.77	442.00
629.12	439.50
629.46	437.13
629.81	434.91
630.15	432.60
630.50	430.31
630.84	428.09
631.19	425.90
631.53	423.83
631.88	421.56
632.22	419.37
632.57	417.49
632.91	415.56
633.26	413.72
633.60	411.88
633.95	410.14
634.29	408.26
634.64	406.43
634.98	404.51
635.32	402.77
635.67	401.22
636.01	399.64
636.36	398.12
636.70	396.66
637.05	395.03
637.39	393.58
637.73	392.12
638.08	390.72
638.42	389.38
638.77	387.89
639.11	386.38
639.45	384.94
639.80	383.44
640.14	382.01
640.49	380.59
640.83	379.17
641.17	377.82
641.52	376.48
641.86	375.19
642.20	374.05
642.55	372.73
642.89	371.41
643.23	370.17
643.58	369.08
643.92	367.83
644.26	366.66
644.61	365.55
644.95	364.40
645.29	363.20
645.64	361.97
645.98	360.86
646.32	359.88
646.66	358.83
647.01	357.79
647.35	356.87
647.69	355.90
648.04	355.01
648.38	354.04
648.72	353.12
649.06	352.20
649.41	351.26
649.75	350.37
650.09	349.51
650.43	348.64
650.78	347.70
651.12	346.85
651.46	346.02
651.80	345.18
652.14	344.39
652.49	343.68
652.83	342.91
653.17	342.11
653.51	341.31
653.85	340.65
654.20	339.93
654.54	339.12
654.88	338.36
655.22	337.65
655.56	336.91
655.90	336.23
656.25	335.55
656.59	334.89
656.93	334.25
657.27	333.69
657.61	333.03
657.95	332.45
658.29	331.83
658.64	331.23
658.98	330.58
659.32	329.94
659.66	329.34
660.00	328.78
660.34	328.22
660.68	327.61
661.02	326.94
661.36	326.31
661.70	325.73
662.05	325.17
662.39	324.61
662.73	324.16
663.07	323.73
663.41	323.26
663.75	322.75
664.09	322.25
664.43	321.62
664.77	321.10
665.11	320.52
665.45	320.00
665.79	319.50
666.13	318.99
666.47	318.46
666.81	317.91
667.15	317.30
667.49	316.83
667.83	316.43
668.17	315.98
668.51	315.58
668.85	315.20
669.19	314.87
669.53	314.36
669.87	313.82
670.21	313.27
670.55	312.77
670.89	312.37
671.23	311.90
671.57	311.50
671.91	311.16
672.25	310.83
672.58	310.51
672.92	310.09
673.26	309.75
673.60	309.42
673.94	309.06
674.28	308.73
674.62	308.38
674.96	307.95
675.30	307.60
675.64	307.18
675.97	306.73
676.31	306.25
676.65	305.85
676.99	305.54
677.33	305.11
677.67	304.72
678.01	304.25
678.34	303.86
678.68	303.48
679.02	303.04
679.36	302.60
679.70	302.15
680.04	301.76
680.37	301.34
680.71	300.95
681.05	300.59
681.39	300.19
681.73	299.74
682.06	299.33
682.40	298.93
682.74	298.59
683.08	298.28
683.42	297.90
683.75	297.57
684.09	297.11
684.43	296.73
684.77	296.33
685.10	295.97
685.44	295.57
685.78	295.15
686.12	294.76
686.45	294.34
686.79	293.92
687.13	293.52
687.46	293.08
687.80	292.68
688.14	292.21
688.48	291.79
688.81	291.38
689.15	291.01
689.49	290.57
689.82	290.13
690.16	289.59
690.50	289.16
690.83	288.70
691.17	288.24
691.51	287.81
691.84	287.42
692.18	286.97
692.52	286.51
692.85	286.09
693.19	285.70
693.52	285.28
693.86	284.84
694.20	284.40
694.53	283.98
694.87	283.50
695.21	283.04
695.54	282.60
695.88	282.13
696.21	281.62
696.55	281.18
696.88	280.73
697.22	280.31
697.56	279.90
697.89	279.42
698.23	279.00
698.56	278.55
698.90	278.14
699.23	277.68
699.57	277.27
699.90	276.83
700.24	276.36
700.58	275.95
700.91	275.59
701.25	275.33
701.58	275.01
701.92	274.66
702.25	274.28
702.59	273.86
702.92	273.47
703.26	273.06
703.59	272.64
703.93	272.37
704.26	271.97
704.60	271.54
704.93	271.13
705.26	270.71
705.60	270.35
705.93	269.88
706.27	269.56
706.60	269.22
706.94	268.89
707.27	268.46
707.61	268.06
707.94	267.63
708.27	267.06
708.61	266.59
708.94	266.16
709.28	265.76
709.61	265.38
709.94	265.02
710.28	264.67
710.61	264.34
710.95	263.82
711.28	263.57
711.61	263.21
711.95	262.90
712.28	262.52
712.61	262.14
712.95	261.89
713.28	261.60
713.61	261.21
713.95	260.80
714.28	260.49
714.61	260.12
714.95	259.78
715.28	259.43
715.61	259.11
715.95	258.81
716.28	258.48
716.61	258.19
716.95	257.85
717.28	257.53
717.61	257.21
717.94	256.91
718.28	256.49
718.61	256.18
718.94	255.85
719.27	255.56
719.61	255.29
719.94	254.96
720.27	254.57
720.60	254.29
720.94	254.00
721.27	253.72
721.60	253.49
721.93	253.20
722.27	252.98
722.60	252.71
722.93	252.39
723.26	252.15
723.59	251.83
723.93	251.59
724.26	251.34
724.59	251.08
724.92	250.84
725.25	250.64
725.59	250.39
725.92	250.17
726.25	249.93
726.58	249.68
726.91	249.42
727.24	249.21
727.57	248.96
727.91	248.69
728.24	248.47
728.57	248.23
728.90	248.02
729.23	247.72
729.56	247.59
729.89	247.37
730.22	247.14
730.55	246.93
730.89	246.70
731.22	246.47
731.55	246.26
731.88	246.06
732.21	245.81
732.54	245.58
732.87	245.38
733.20	245.19
733.53	244.99
733.86	244.82
734.19	244.60
734.52	244.44
734.85	244.39
735.18	244.17
735.51	244.04
735.84	243.86
736.17	243.74
736.50	243.45
736.83	243.49
737.16	243.32
737.49	243.15
737.82	242.95
738.15	242.80
738.48	242.61
738.81	242.42
739.14	242.23
739.47	242.05
739.80	241.86
740.13	241.70
740.46	241.50
740.79	241.29
741.12	241.11
741.45	240.90
741.78	240.62
742.11	240.50
742.44	240.28
742.77	240.13
743.10	239.94
743.43	239.77
743.75	239.41
744.08	239.53
744.41	239.35
744.74	239.19
745.07	239.00
745.40	238.89
745.73	238.82
746.06	238.68
746.39	238.57
746.71	238.42
747.04	238.26
747.37	238.11
747.70	238.00
748.03	237.87
748.36	237.77
748.68	237.63
749.01	237.45
749.34	237.33
749.67	237.20
750.00	237.10
750.33	237.11
750.65	237.00
750.98	236.60
751.31	236.49
751.64	236.39
751.97	236.37
752.29	236.22
752.62	236.01
752.95	235.88
753.28	235.73
753.60	235.61
753.93	235.53
754.26	235.44
754.59	235.27
754.91	235.13
755.24	234.99
755.57	234.88
755.90	234.76
756.22	234.62
756.55	234.47
756.88	234.32
757.20	234.08
757.53	233.92
757.86	233.80
758.19	233.71
758.51	233.59
758.84	233.40
759.17	233.28
759.49	233.19
759.82	233.18
760.15	233.10
760.47	233.00
760.80	232.85
761.13	232.77
761.45	232.69
761.78	232.60
762.11	232.52
762.43	232.40
762.76	232.30
763.08	232.24
763.41	232.17
763.74	232.10
764.06	232.02
764.39	231.94
764.71	231.85
765.04	231.75
765.37	231.66
765.69	231.58
766.02	231.50
766.34	231.41
766.67	231.26
767.00	231.22
767.32	231.24
767.65	231.29
767.97	231.20
768.30	231.14
768.62	231.07
768.95	230.98
769.27	230.91
769.60	230.88
769.92	230.77
770.25	230.68
770.57	230.57
770.90	230.51
771.22	230.43
771.55	230.37
771.87	230.33
772.20	230.26
772.52	230.36
772.85	230.53
773.17	230.47
773.50	230.40
773.82	230.31
774.15	230.16
774.47	229.99
774.80	229.91
775.12	229.86
775.45	229.80
775.77	229.76
776.09	229.73
776.42	229.67
776.74	229.69
777.07	229.63
777.39	229.60
777.72	229.54
778.04	229.52
778.36	229.46
778.69	229.41
779.01	229.38
779.33	229.17
779.66	228.92
779.98	228.87
780.31	228.83
780.63	228.87
780.95	228.86
781.28	228.82
781.60	228.77
781.92	228.73
782.25	228.69
782.57	228.65
782.89	228.60
783.22	228.55
783.54	228.47
783.86	228.46
784.19	228.42
784.51	228.44
784.83	228.38
785.16	228.34
785.48	228.31
785.80	228.28
786.12	228.26
786.45	228.23
786.77	228.21
787.09	228.16
787.42	228.06
787.74	228.03
788.06	228.01
788.38	227.98
788.71	227.93
789.03	227.91
789.35	227.90
789.67	227.85
789.99	227.83
790.32	227.78
790.64	227.78
790.96	227.92
791.28	227.82
791.61	227.79
791.93	227.77
792.25	227.73
792.57	227.83
792.89	227.78
793.21	227.77
793.54	227.72
793.86	227.68
794.18	227.67
794.50	227.61
794.82	227.58
795.14	227.58
795.47	227.59
795.79	227.57
796.11	227.50
796.43	227.48
796.75	227.45
797.07	227.43
797.39	227.40
797.71	227.22
798.04	227.21
798.36	227.20
798.68	227.17
799.00	227.16
799.32	227.04
799.64	227.06
799.96	227.03
800.28	227.04
800.60	227.01
800.92	227.01
801.24	226.98
801.56	226.98
801.89	226.94
802.21	226.93
802.53	226.88
802.85	226.90
803.17	226.97
803.49	226.91
803.81	226.88
804.13	226.85
804.45	226.81
804.77	226.80
805.09	226.78
805.41	226.74
805.73	226.69
806.05	226.62
806.37	226.59
806.69	226.55
807.01	226.51
807.33	226.51
807.65	226.42
807.97	226.48
808.28	226.44
808.60	226.42
808.92	226.37
809.24	226.47
809.56	226.42
809.88	226.33
810.20	226.33
810.52	226.36
810.84	226.32
811.16	226.28
811.48	226.26
811.80	226.30
812.12	226.29
812.43	226.32
812.75	226.32
813.07	226.29
813.39	226.29
813.71	226.25
814.03	226.22
814.35	226.22
814.67	226.13
814.98	226.11
815.30	226.09
815.62	226.06
815.94	225.92
816.26	225.93
816.58	225.89
816.89	225.89
817.21	225.83
817.53	225.84
817.85	225.84
818.17	225.82
818.48	225.73
818.80	225.76
819.12	225.71
819.44	225.67
819.76	225.64
820.07	225.63
820.39	225.61
820.71	225.62
821.03	225.61
821.34	225.58
821.66	225.60
821.98	225.60
822.30	225.58
822.61	225.70
822.93	225.65
823.25	225.64
823.57	225.61
823.88	225.62
824.20	225.61
824.52	225.63
824.83	225.61
825.15	225.59
825.47	225.56
825.79	225.57
826.10	225.55
826.42	225.54
826.74	225.54
827.05	225.53
827.37	225.53
827.69	225.51
828.00	225.51
828.32	225.49
828.64	225.47
828.95	225.56
829.27	225.49
829.58	225.48
829.90	225.50
830.22	225.51
830.53	225.47
830.85	225.45
831.17	225.39
831.48	225.38
831.80	225.38
832.11	225.37
832.43	225.33
832.75	225.33
833.06	225.43
833.38	225.38
833.69	225.37
834.01	225.36
834.32	225.35
834.64	225.33
834.96	225.33
835.27	225.32
835.59	225.25
835.90	225.22
836.22	225.21
836.53	225.16
836.85	225.13
837.16	225.32
837.48	225.32
837.79	225.37
838.11	225.37
838.42	225.36
838.74	225.38
839.05	225.36
839.37	225.35
839.68	225.22
840.00	225.21
840.31	225.23
840.63	225.21
840.94	225.19
841.26	225.17
841.57	225.16
841.88	225.17
842.20	225.15
842.51	225.11
842.83	225.10
843.14	225.27
843.46	225.26
843.77	225.15
844.08	225.13
844.40	225.07
844.71	225.05
845.03	225.02
845.34	225.00
845.65	225.00
845.97	225.00
846.28	225.01
846.60	225.03
846.91	224.99
847.22	224.98
847.54	225.02
847.85	225.03
848.16	225.01
848.48	224.97
848.79	225.04
849.10	225.06
849.42	225.07
849.73	224.89
850.04	224.89
850.36	224.82
850.67	224.86
850.98	224.87
851.30	224.88
851.61	224.87
851.92	224.87
852.23	224.92
852.55	224.93
852.86	224.93
853.17	224.94
853.49	224.98
853.80	225.02
854.11	225.02
854.42	225.04
854.74	225.02
855.05	225.03
855.36	224.94
855.67	224.93
855.99	224.93
856.30	225.15
856.61	225.14
856.92	225.14
857.23	225.14
857.55	225.12
857.86	225.10
858.17	225.13
858.48	225.10
858.79	225.06
859.11	225.07
859.42	225.05
859.73	225.03
860.04	225.01
860.35	224.95
860.66	224.89
860.98	224.88
861.29	224.91
861.60	224.89
861.91	224.93
862.22	224.90
862.53	224.87
862.84	224.65
863.16	224.68
863.47	224.65
863.78	224.62
864.09	224.64
864.40	224.65
864.71	224.65
865.02	224.68
865.33	224.65
865.64	224.62
865.95	224.62
866.27	224.73
866.58	224.71
866.89	224.74
867.20	224.73
867.51	224.70
867.82	224.69
868.13	224.75
868.44	224.71
868.75	224.74
869.06	224.75
869.37	224.77
869.68	224.72
869.99	224.76
870.30	224.76
870.61	224.78
870.92	224.75
871.23	224.73
871.54	224.75
871.85	224.79
872.16	224.81
872.47	224.80
872.78	224.69
873.09	224.71
873.40	224.69
873.71	224.70
874.02	224.71
874.33	224.70
874.64	224.65
874.95	224.68
875.26	224.64
875.56	224.63
875.87	224.62
876.18	224.61
876.49	224.79
876.80	224.77
877.11	224.73
877.42	224.74
877.73	224.75
878.04	224.71
878.35	224.71
878.66	224.71
878.96	224.71
879.27	224.70
879.58	224.68
879.89	224.67
880.20	224.72
880.51	224.71
880.82	224.71
881.12	224.72
881.43	224.68
881.74	224.66
882.05	224.65
882.36	224.66
882.67	224.67
882.97	224.47
883.28	224.46
883.59	224.46
883.90	224.47
884.21	224.50
884.51	224.49
884.82	224.46
885.13	224.45
885.44	224.45
885.74	224.45
886.05	224.44
886.36	224.45
886.67	224.38
886.98	224.48
887.28	224.49
887.59	224.49
887.90	224.50
888.20	224.50
888.51	224.53
888.82	224.50
889.13	224.52
889.43	224.68
889.74	224.67
890.05	224.67
890.35	224.65
890.66	224.61
890.97	224.60
891.28	224.58
891.58	224.58
891.89	224.58
892.20	224.56
892.50	224.54
892.81	224.53
893.12	224.52
893.42	224.43
893.73	224.43
894.04	224.43
894.34	224.44
894.65	224.43
894.95	224.41
895.26	224.42
895.57	224.50
895.87	224.31
896.18	224.35
896.48	224.36
896.79	224.36
897.10	224.39
897.40	224.40
897.71	224.42
898.01	224.41
898.32	224.43
898.63	224.42
898.93	224.44
899.24	224.45
899.54	224.44
899.85	224.44
900.15	224.43
900.46	224.43
900.76	224.45
901.07	224.44
901.38	224.44
901.68	224.45
901.99	224.36
902.29	224.37
902.60	224.35
902.90	224.33
903.21	224.33
903.51	224.31
903.82	224.35
904.12	224.34
904.43	224.35
904.73	224.34
905.03	224.36
905.34	224.53
905.64	224.52
905.95	224.52
906.25	224.52
906.56	224.51
906.86	224.51
907.17	224.49
907.47	224.50
907.77	224.48
908.08	224.44
908.38	224.45
908.69	224.47
908.99	224.50
909.30	224.51
909.60	224.51
909.90	224.51
910.21	224.45
910.51	224.42
910.81	224.42
911.12	224.42
911.42	224.42
911.73	224.23
912.03	224.25
912.33	224.29
912.64	224.27
912.94	224.25
913.24	224.22
913.55	224.21
913.85	224.19
914.15	224.23
914.46	224.25
914.76	224.24
915.06	224.22
915.37	224.18
915.67	224.17
915.97	224.16
916.27	224.13
916.58	224.14
916.88	224.14
917.18	224.13
917.49	224.25
917.79	224.24
918.09	224.27
918.39	224.31
918.70	224.29
919.00	224.30
919.30	224.39
919.60	224.39
919.91	224.38
920.21	224.39
920.51	224.34
920.81	224.33
921.12	224.36
921.42	224.35
921.72	224.37
922.02	224.38
922.32	224.41
922.63	224.42
922.93	224.52
923.23	224.53
923.53	224.51
923.83	224.39
924.13	224.41
924.44	224.41
924.74	224.43
925.04	224.47
925.34	224.47
925.64	224.39
925.94	224.39
926.24	224.50
926.55	224.48
926.85	224.51
927.15	224.51
927.45	224.50
927.75	224.50
928.05	224.51
928.35	224.49
928.65	224.52
928.95	224.53
929.26	224.44
929.56	224.48
929.86	224.50
930.16	224.49
930.46	224.47
930.76	224.47
931.06	224.38
931.36	224.33
931.66	224.36
931.96	224.39
932.26	224.40
932.56	224.32
932.86	224.33
933.16	224.33
933.46	224.31
933.76	224.28
934.06	224.31
934.36	224.37
934.66	224.37
934.96	224.34
935.26	224.35
935.56	224.37
935.86	224.32
936.16	224.29
936.46	224.28
936.76	224.27
937.06	224.25
937.36	224.27
937.66	224.28
937.96	224.26
938.26	224.22
938.56	224.21
938.86	224.22
939.16	224.26
939.46	224.27
939.76	224.29
940.06	224.29
940.35	224.25
940.65	224.16
940.95	224.18
941.25	224.14
941.55	224.11
941.85	224.10
942.15	224.14
942.45	224.19
942.75	224.19
943.04	224.20
943.34	224.24
943.64	224.22
943.94	224.20
944.24	224.20
944.54	224.21
944.84	224.21
945.13	224.19
945.43	224.15
945.73	224.13
946.03	224.12
946.33	224.10
946.62	224.08
946.92	224.08
947.22	224.09
947.52	224.11
947.82	224.13
948.11	224.11
948.41	224.06
948.71	224.02
949.01	224.03
949.31	224.01
949.60	223.99
949.90	224.02
950.20	224.01
950.50	224.01
950.79	223.99
951.09	224.02
951.39	224.02
951.69	224.00
951.98	224.04
952.28	224.05
952.58	224.05
952.87	224.06
953.17	224.09
953.47	224.06
953.76	224.06
954.06	224.02
954.36	224.00
954.66	224.00
954.95	224.05
955.25	224.06
955.55	224.08
955.84	224.05
956.14	224.06
956.44	224.08
956.73	224.05
957.03	224.07
957.32	224.06
957.62	224.05
957.92	224.09
958.21	224.07
958.51	224.28
958.81	224.31
959.10	224.33
959.40	224.36
959.69	224.38
959.99	224.40
960.29	224.41
960.58	224.41
960.88	224.47
961.17	224.45
961.47	224.46
961.76	224.45
962.06	224.48
962.36	224.46
962.65	224.46
962.95	224.48
963.24	224.45
963.54	224.46
963.83	224.47
964.13	224.46
964.42	224.44
964.72	224.29
965.01	224.28
965.31	224.27
965.60	224.22
965.90	224.34
966.19	224.30
966.49	224.31
966.78	224.31
967.08	224.29
967.37	224.29
967.67	224.26
967.96	224.29
968.26	224.28
968.55	224.31
968.85	224.30
969.14	224.30
969.43	224.31
969.73	224.29
970.02	224.28
970.32	224.27
970.61	224.24
970.91	224.19
971.20	224.17
971.49	224.15
971.79	224.17
972.08	224.04
972.38	224.06
972.67	224.04
972.96	224.07
973.26	224.03
973.55	224.09
973.85	224.08
974.14	224.07
974.43	224.07
974.73	224.04
975.02	224.02
975.31	224.02
975.61	224.02
975.90	224.01
976.19	223.99
976.49	224.01
976.78	224.02
977.07	224.02
977.37	224.03
977.66	224.05
977.95	224.02
978.24	224.04
978.54	224.08
978.83	224.06
979.12	224.05
979.42	224.05
979.71	224.00
980.00	224.00
980.29	224.01
980.59	223.98
980.88	224.03
981.17	224.02
981.46	224.02
981.76	224.02
982.05	224.08
982.34	224.10
982.63	224.10
982.93	224.10
983.22	224.14
983.51	224.15
983.80	224.18
984.09	224.20
984.39	224.19
984.68	224.16
984.97	224.17
985.26	224.16
985.55	224.18
985.85	224.15
986.14	224.17
986.43	224.19
986.72	224.18
987.01	224.12
987.30	224.13
987.59	224.11
987.89	224.12
988.18	224.06
988.47	224.04
988.76	224.02
989.05	224.01
989.34	223.98
989.63	224.02
989.92	223.99
990.22	223.96
990.51	223.96
990.80	223.95
991.09	223.96
991.38	223.99
991.67	223.97
991.96	223.96
992.25	223.96
992.54	223.92
992.83	223.93
993.12	223.93
993.41	223.96
993.70	224.04
993.99	224.06
994.28	224.09
994.58	224.12
994.87	224.11
995.16	224.11
995.45	224.09
995.74	224.02
996.03	224.05
996.32	224.08
996.61	224.12
996.90	224.12
997.19	224.11
997.48	224.11
997.77	224.09
998.06	224.10
998.34	224.09
998.63	224.09
998.92	224.10
999.21	224.13
999.50	224.12
999.79	224.05
1000.08	224.04
1000.37	224.04
1000.66	224.01
1000.95	224.06
1001.24	224.07
1001.53	224.10
1001.82	224.10
1002.11	224.06
1002.40	224.07
1002.68	224.10
1002.97	224.23
1003.26	224.21
1003.55	224.18
1003.84	224.20
1004.13	224.26
1004.42	224.25
1004.71	224.25
1004.99	224.24
1005.28	224.27
1005.57	224.26
1005.86	224.24
1006.15	224.23
1006.44	224.20
1006.72	224.23
1007.01	224.20
1007.30	224.20
1007.59	224.18
1007.88	224.18
1008.17	224.19
1008.45	224.15
1008.74	224.08
1009.03	223.99
1009.32	223.99
1009.60	224.00
1009.89	223.98
1010.18	223.90
1010.47	223.90
1010.76	223.89
1011.04	223.89
1011.33	223.89
1011.62	223.90
1011.91	223.92
1012.19	223.93
1012.48	223.93
1012.77	223.93
1013.05	223.99
1013.34	223.99
1013.63	223.98
1013.92	223.99
1014.20	223.97
1014.49	223.98
1014.78	224.00
1015.06	223.94
1015.35	223.95
1015.64	223.97
1015.92	224.00
1016.21	224.02
1016.50	224.02
1016.78	224.04
1017.07	224.05
1017.36	224.02
1017.64	223.99
1017.93	224.01
1018.22	223.99
1018.50	223.99
1018.79	223.98
1019.08	223.91
1019.36	223.92
1019.65	223.91
1019.93	223.96
1020.22	223.99
1020.51	224.08
1020.79	224.06
1021.08	223.73
1021.36	223.68
1021.65	224.03
1021.94	223.87
1022.22	224.07
1022.51	223.65
1022.79	224.86
1023.08	224.27
1023.36	226.15
1023.65	223.56
>>>>>End Processed Spectral Data<<<<<
