SpectraSuite Data File
++++++++++++++++++++++++++++++++++++
Date: Tue Oct 06 13:35:36 EDT 2015
User: lab3
Dark Spectrum Present: No
Reference Spectrum Present: No
Number of Sampled Component Spectra: 1
Spectrometers: USB2E7196
Integration Time (usec): 66000 (USB2E7196)
Spectra Averaged: 1000 (USB2E7196)
Boxcar Smoothing: 10 (USB2E7196)
Correct for Electrical Dark: No (USB2E7196)
Strobe/Lamp Enabled: No (USB2E7196)
Correct for Detector Non-linearity: No (USB2E7196)
Correct for Stray Light: No (USB2E7196)
Number of Pixels in Processed Spectrum: 2048
>>>>>Begin Processed Spectral Data<<<<<
339.09	0.00
339.48	216.07
339.86	217.42
340.24	218.95
340.63	220.30
341.01	224.30
341.39	222.90
341.78	224.68
342.16	225.85
342.54	226.21
342.93	214.52
343.31	225.36
343.69	225.90
344.07	226.37
344.46	226.81
344.84	227.21
345.22	227.41
345.60	227.69
345.99	227.88
346.37	228.02
346.75	228.13
347.13	228.21
347.52	228.29
347.90	228.41
348.28	228.46
348.66	228.54
349.05	228.53
349.43	228.59
349.81	228.65
350.19	228.71
350.57	228.77
350.96	228.86
351.34	228.95
351.72	229.06
352.10	229.16
352.48	229.23
352.87	229.26
353.25	229.32
353.63	229.36
354.01	229.42
354.39	229.50
354.77	229.57
355.15	229.69
355.54	229.72
355.92	229.71
356.30	229.78
356.68	229.96
357.06	230.03
357.44	230.07
357.82	230.13
358.20	230.34
358.58	230.40
358.97	230.47
359.35	230.55
359.73	230.64
360.11	230.70
360.49	230.76
360.87	230.82
361.25	230.89
361.63	231.00
362.01	231.05
362.39	231.08
362.77	231.12
363.15	231.15
363.53	231.17
363.91	231.23
364.29	231.24
364.67	231.10
365.05	231.13
365.43	231.17
365.81	231.22
366.19	231.16
366.57	231.23
366.95	231.23
367.33	231.18
367.71	231.18
368.09	231.21
368.47	231.19
368.85	231.18
369.23	231.20
369.61	231.12
369.99	231.16
370.37	231.15
370.75	231.27
371.13	231.23
371.51	231.20
371.89	231.18
372.27	231.16
372.65	231.15
373.03	231.10
373.41	231.05
373.78	231.00
374.16	230.87
374.54	230.77
374.92	230.73
375.30	230.69
375.68	230.62
376.06	230.58
376.44	230.53
376.82	230.49
377.19	230.45
377.57	230.41
377.95	230.31
378.33	230.24
378.71	230.02
379.09	229.98
379.47	229.95
379.84	229.89
380.22	229.83
380.60	229.75
380.98	229.70
381.36	229.66
381.73	229.58
382.11	229.57
382.49	229.54
382.87	229.46
383.25	229.43
383.62	229.59
384.00	229.52
384.38	229.49
384.76	229.49
385.13	229.50
385.51	229.46
385.89	229.41
386.27	229.38
386.64	229.39
387.02	229.33
387.40	229.29
387.78	229.27
388.15	229.25
388.53	229.22
388.91	229.20
389.29	229.17
389.66	229.19
390.04	229.14
390.42	229.16
390.79	229.16
391.17	229.15
391.55	228.94
391.92	228.93
392.30	228.94
392.68	228.90
393.05	228.88
393.43	228.88
393.81	228.91
394.18	228.90
394.56	228.92
394.94	228.99
395.31	229.00
395.69	229.08
396.06	229.12
396.44	229.17
396.82	229.20
397.19	229.32
397.57	229.33
397.95	229.40
398.32	229.41
398.70	229.48
399.07	229.58
399.45	229.65
399.82	229.71
400.20	229.77
400.58	229.86
400.95	229.89
401.33	230.02
401.70	230.24
402.08	230.38
402.45	230.51
402.83	230.67
403.20	230.83
403.58	230.96
403.95	231.17
404.33	231.38
404.71	231.59
405.08	231.90
405.46	232.15
405.83	232.43
406.21	232.72
406.58	233.04
406.96	233.36
407.33	233.72
407.70	234.15
408.08	234.71
408.45	235.20
408.83	235.74
409.20	236.22
409.58	236.67
409.95	237.28
410.33	237.94
410.70	238.57
411.08	239.31
411.45	240.09
411.82	240.89
412.20	241.80
412.57	242.88
412.95	243.74
413.32	244.86
413.69	246.00
414.07	247.22
414.44	248.56
414.82	249.93
415.19	251.54
415.56	253.16
415.94	254.85
416.31	256.74
416.68	258.65
417.06	260.85
417.43	262.92
417.81	265.29
418.18	267.70
418.55	270.34
418.93	273.09
419.30	275.98
419.67	279.03
420.04	282.18
420.42	285.47
420.79	289.27
421.16	293.09
421.54	296.98
421.91	301.04
422.28	305.23
422.66	309.76
423.03	314.06
423.40	318.59
423.77	323.42
424.15	328.37
424.52	333.49
424.89	339.04
425.26	344.55
425.64	349.66
426.01	355.40
426.38	361.28
426.75	367.29
427.13	373.44
427.50	379.87
427.87	386.52
428.24	393.21
428.61	399.64
428.99	406.57
429.36	414.21
429.73	421.53
430.10	428.81
430.47	436.26
430.85	443.97
431.22	452.17
431.59	460.59
431.96	468.78
432.33	477.90
432.70	486.59
433.08	496.93
433.45	506.64
433.82	516.17
434.19	526.83
434.56	537.36
434.93	547.53
435.30	557.63
435.68	569.12
436.05	580.31
436.42	591.52
436.79	601.76
437.16	612.80
437.53	624.67
437.90	636.60
438.27	648.21
438.64	660.70
439.01	672.10
439.38	682.66
439.75	692.80
440.13	704.34
440.50	715.36
440.87	724.07
441.24	733.67
441.61	744.23
441.98	752.02
442.35	761.20
442.72	770.68
443.09	779.78
443.46	785.78
443.83	790.29
444.20	793.98
444.57	799.43
444.94	802.79
445.31	806.13
445.68	808.98
446.05	811.17
446.42	811.03
446.79	810.65
447.16	810.29
447.53	810.17
447.90	806.94
448.27	803.74
448.64	798.72
449.01	795.40
449.37	788.29
449.74	781.85
450.11	773.52
450.48	764.22
450.85	754.82
451.22	746.63
451.59	738.74
451.96	731.68
452.33	721.31
452.70	712.01
453.07	700.73
453.43	689.51
453.80	678.56
454.17	668.09
454.54	658.34
454.91	647.31
455.28	636.80
455.65	626.89
456.02	616.50
456.38	608.10
456.75	597.25
457.12	588.48
457.49	579.65
457.86	571.32
458.23	564.03
458.59	555.97
458.96	547.75
459.33	540.49
459.70	533.07
460.07	527.32
460.43	520.61
460.80	514.32
461.17	508.81
461.54	502.95
461.91	497.43
462.27	491.81
462.64	487.23
463.01	481.99
463.38	476.78
463.74	472.06
464.11	467.88
464.48	464.14
464.85	460.07
465.21	456.93
465.58	453.44
465.95	449.47
466.32	446.28
466.68	443.16
467.05	439.98
467.42	436.94
467.78	433.70
468.15	430.72
468.52	428.52
468.88	425.64
469.25	422.98
469.62	420.89
469.98	418.60
470.35	416.54
470.72	414.70
471.08	412.78
471.45	411.17
471.82	409.37
472.18	407.48
472.55	406.27
472.92	404.75
473.28	403.56
473.65	402.28
474.02	401.11
474.38	400.11
474.75	399.51
475.11	398.64
475.48	398.22
475.85	397.79
476.21	397.56
476.58	397.39
476.94	397.60
477.31	397.64
477.67	397.77
478.04	398.08
478.41	398.47
478.77	399.08
479.14	399.43
479.50	400.20
479.87	401.16
480.23	402.13
480.60	403.07
480.96	404.01
481.33	405.41
481.69	406.78
482.06	408.14
482.42	409.43
482.79	410.97
483.15	412.82
483.52	414.89
483.88	416.89
484.25	418.99
484.61	421.21
484.98	423.56
485.34	426.22
485.71	428.97
486.07	431.92
486.44	434.80
486.80	438.09
487.17	441.44
487.53	445.12
487.90	448.96
488.26	453.15
488.62	457.54
488.99	461.96
489.35	466.63
489.72	471.68
490.08	476.95
490.44	482.35
490.81	487.88
491.17	493.55
491.54	499.62
491.90	505.84
492.26	512.45
492.63	519.39
492.99	526.58
493.36	534.05
493.72	541.92
494.08	549.91
494.45	558.30
494.81	567.11
495.17	576.11
495.54	585.60
495.90	595.48
496.26	605.62
496.63	616.01
496.99	626.75
497.35	637.90
497.72	649.44
498.08	661.41
498.44	673.66
498.80	686.69
499.17	700.05
499.53	713.84
499.89	727.99
500.26	742.24
500.62	756.79
500.98	772.01
501.34	787.44
501.71	803.61
502.07	820.03
502.43	836.85
502.79	853.82
503.16	871.23
503.52	888.92
503.88	907.08
504.24	925.66
504.60	944.52
504.97	963.78
505.33	983.53
505.69	1004.23
506.05	1024.98
506.41	1045.63
506.78	1066.57
507.14	1088.30
507.50	1110.48
507.86	1133.16
508.22	1155.92
508.59	1178.51
508.95	1201.93
509.31	1225.76
509.67	1250.27
510.03	1274.69
510.39	1299.49
510.75	1324.37
511.12	1349.24
511.48	1374.14
511.84	1399.14
512.20	1424.61
512.56	1450.53
512.92	1476.12
513.28	1501.46
513.64	1527.18
514.00	1552.96
514.37	1578.92
514.73	1604.59
515.09	1629.83
515.45	1655.26
515.81	1680.82
516.17	1706.48
516.53	1731.44
516.89	1756.39
517.25	1781.37
517.61	1806.18
517.97	1831.22
518.33	1855.80
518.69	1880.32
519.05	1904.99
519.41	1929.58
519.77	1954.04
520.13	1978.24
520.49	2002.34
520.85	2026.45
521.21	2050.34
521.57	2074.46
521.93	2097.52
522.29	2121.08
522.65	2144.20
523.01	2167.10
523.37	2189.12
523.73	2211.53
524.09	2234.12
524.45	2256.73
524.81	2278.49
525.17	2300.04
525.53	2320.91
525.89	2342.06
526.25	2362.79
526.61	2382.44
526.97	2402.24
527.33	2421.57
527.68	2440.00
528.04	2457.86
528.40	2474.63
528.76	2491.93
529.12	2508.08
529.48	2524.68
529.84	2540.00
530.20	2556.32
530.56	2571.57
530.91	2586.78
531.27	2600.98
531.63	2614.23
531.99	2627.17
532.35	2638.53
532.71	2649.95
533.07	2661.64
533.42	2671.81
533.78	2682.76
534.14	2693.92
534.50	2703.68
534.86	2713.55
535.21	2721.50
535.57	2729.58
535.93	2738.08
536.29	2745.45
536.65	2752.99
537.00	2758.42
537.36	2764.26
537.72	2768.39
538.08	2772.23
538.44	2775.14
538.79	2778.47
539.15	2781.13
539.51	2783.20
539.87	2786.00
540.22	2786.67
540.58	2787.83
540.94	2788.57
541.29	2787.88
541.65	2785.71
542.01	2783.61
542.37	2780.48
542.72	2779.10
543.08	2776.32
543.44	2773.36
543.79	2768.60
544.15	2763.75
544.51	2759.71
544.87	2753.66
545.22	2747.11
545.58	2740.77
545.94	2735.26
546.29	2728.02
546.65	2720.09
547.01	2712.22
547.36	2703.96
547.72	2695.69
548.07	2686.18
548.43	2676.57
548.79	2665.82
549.14	2656.06
549.50	2646.19
549.86	2635.70
550.21	2623.36
550.57	2612.37
550.92	2599.61
551.28	2587.56
551.64	2575.73
551.99	2563.98
552.35	2552.34
552.70	2540.51
553.06	2528.98
553.41	2516.24
553.77	2503.09
554.13	2490.19
554.48	2476.53
554.84	2462.33
555.19	2449.04
555.55	2434.94
555.90	2420.95
556.26	2407.89
556.61	2394.04
556.97	2379.26
557.32	2364.82
557.68	2350.55
558.03	2335.75
558.39	2321.76
558.74	2308.03
559.10	2292.21
559.45	2276.89
559.81	2262.26
560.16	2247.23
560.52	2231.90
560.87	2217.46
561.23	2202.58
561.58	2188.04
561.94	2172.78
562.29	2157.70
562.64	2142.53
563.00	2127.55
563.35	2113.13
563.71	2098.57
564.06	2083.63
564.42	2069.14
564.77	2054.72
565.12	2040.82
565.48	2026.74
565.83	2012.28
566.19	1997.97
566.54	1984.18
566.89	1969.12
567.25	1953.65
567.60	1939.37
567.96	1924.51
568.31	1909.11
568.66	1894.53
569.02	1879.96
569.37	1865.50
569.72	1851.38
570.08	1837.10
570.43	1822.76
570.78	1807.65
571.14	1792.48
571.49	1777.73
571.84	1763.74
572.20	1748.52
572.55	1733.42
572.90	1717.78
573.26	1702.26
573.61	1686.42
573.96	1671.18
574.31	1656.65
574.67	1642.55
575.02	1627.57
575.37	1612.37
575.72	1597.03
576.08	1581.99
576.43	1567.06
576.78	1552.20
577.13	1537.41
577.49	1522.67
577.84	1507.83
578.19	1493.20
578.54	1478.61
578.90	1463.92
579.25	1448.76
579.60	1434.76
579.95	1420.71
580.30	1406.90
580.66	1393.07
581.01	1379.45
581.36	1365.73
581.71	1351.88
582.06	1338.08
582.42	1324.49
582.77	1311.21
583.12	1298.26
583.47	1285.20
583.82	1272.21
584.17	1259.28
584.53	1246.33
584.88	1233.77
585.23	1221.04
585.58	1208.60
585.93	1196.18
586.28	1184.37
586.63	1172.40
586.98	1160.33
587.34	1148.64
587.69	1136.70
588.04	1125.15
588.39	1113.73
588.74	1102.21
589.09	1091.07
589.44	1079.42
589.79	1068.35
590.14	1057.45
590.49	1046.59
590.84	1036.03
591.19	1025.55
591.54	1015.02
591.89	1004.31
592.25	993.65
592.60	982.97
592.95	972.53
593.30	962.20
593.65	951.74
594.00	941.62
594.35	932.11
594.70	922.13
595.05	912.87
595.40	903.39
595.75	893.75
596.10	884.62
596.45	875.36
596.80	866.50
597.15	857.60
597.50	848.73
597.85	840.23
598.19	831.62
598.54	823.02
598.89	814.63
599.24	806.66
599.59	798.75
599.94	791.34
600.29	783.69
600.64	776.10
600.99	768.52
601.34	761.15
601.69	753.23
602.04	745.90
602.39	738.67
602.74	731.71
603.08	724.82
603.43	717.95
603.78	711.19
604.13	704.57
604.48	697.94
604.83	691.56
605.18	685.12
605.53	678.83
605.87	672.41
606.22	666.26
606.57	660.09
606.92	653.81
607.27	647.67
607.62	641.87
607.96	636.17
608.31	630.80
608.66	625.22
609.01	619.90
609.36	614.77
609.70	609.52
610.05	604.21
610.40	599.08
610.75	593.87
611.10	588.98
611.44	584.05
611.79	579.24
612.14	574.38
612.49	569.53
612.83	564.91
613.18	560.53
613.53	556.14
613.88	551.79
614.22	547.66
614.57	543.40
614.92	539.21
615.27	535.13
615.61	531.02
615.96	527.09
616.31	523.15
616.65	519.21
617.00	515.38
617.35	511.65
617.70	507.98
618.04	504.46
618.39	500.88
618.74	497.46
619.08	493.94
619.43	490.51
619.78	487.22
620.12	483.95
620.47	480.83
620.82	477.73
621.16	474.69
621.51	471.77
621.85	468.93
622.20	466.12
622.55	463.31
622.89	460.55
623.24	457.91
623.59	455.32
623.93	452.75
624.28	450.30
624.62	448.04
624.97	445.79
625.32	443.39
625.66	440.99
626.01	438.62
626.35	436.48
626.70	434.27
627.04	432.21
627.39	430.08
627.73	427.99
628.08	425.98
628.43	424.03
628.77	422.03
629.12	420.14
629.46	418.23
629.81	416.45
630.15	414.60
630.50	412.77
630.84	411.01
631.19	409.33
631.53	407.71
631.88	405.88
632.22	404.15
632.57	402.76
632.91	401.31
633.26	399.93
633.60	398.48
633.95	397.13
634.29	395.65
634.64	394.26
634.98	392.71
635.32	391.35
635.67	390.07
636.01	388.77
636.36	387.51
636.70	386.40
637.05	385.12
637.39	383.97
637.73	382.85
638.08	381.77
638.42	380.67
638.77	379.45
639.11	378.23
639.45	377.08
639.80	375.88
640.14	374.75
640.49	373.57
640.83	372.45
641.17	371.34
641.52	370.28
641.86	369.24
642.20	368.39
642.55	367.34
642.89	366.29
643.23	365.30
643.58	364.39
643.92	363.33
644.26	362.37
644.61	361.47
644.95	360.54
645.29	359.57
645.64	358.61
645.98	357.71
646.32	356.90
646.66	356.01
647.01	355.10
647.35	354.29
647.69	353.46
648.04	352.67
648.38	351.83
648.72	351.06
649.06	350.30
649.41	349.48
649.75	348.71
650.09	347.98
650.43	347.25
650.78	346.46
651.12	345.71
651.46	344.99
651.80	344.27
652.14	343.53
652.49	342.84
652.83	342.11
653.17	341.42
653.51	340.74
653.85	340.14
654.20	339.50
654.54	338.78
654.88	338.10
655.22	337.45
655.56	336.76
655.90	336.06
656.25	335.39
656.59	334.74
656.93	334.16
657.27	333.59
657.61	332.93
657.95	332.35
658.29	331.77
658.64	331.25
658.98	330.66
659.32	330.08
659.66	329.52
660.00	328.98
660.34	328.42
660.68	327.85
661.02	327.22
661.36	326.64
661.70	326.08
662.05	325.56
662.39	325.07
662.73	324.64
663.07	324.23
663.41	323.75
663.75	323.21
664.09	322.69
664.43	322.10
664.77	321.62
665.11	321.03
665.45	320.50
665.79	319.95
666.13	319.41
666.47	318.88
666.81	318.30
667.15	317.69
667.49	317.21
667.83	316.77
668.17	316.31
668.51	315.87
668.85	315.45
669.19	315.07
669.53	314.54
669.87	314.03
670.21	313.53
670.55	313.06
670.89	312.73
671.23	312.29
671.57	311.88
671.91	311.48
672.25	311.13
672.58	310.76
672.92	310.31
673.26	309.90
673.60	309.50
673.94	309.12
674.28	308.78
674.62	308.41
674.96	307.97
675.30	307.57
675.64	307.16
675.97	306.72
676.31	306.21
676.65	305.78
676.99	305.42
677.33	304.97
677.67	304.53
678.01	303.98
678.34	303.53
678.68	303.12
679.02	302.66
679.36	302.22
679.70	301.76
680.04	301.32
680.37	300.90
680.71	300.49
681.05	300.10
681.39	299.69
681.73	299.22
682.06	298.77
682.40	298.35
682.74	297.97
683.08	297.63
683.42	297.21
683.75	296.80
684.09	296.30
684.43	295.87
684.77	295.43
685.10	295.05
685.44	294.67
685.78	294.25
686.12	293.85
686.45	293.41
686.79	292.95
687.13	292.56
687.46	292.11
687.80	291.70
688.14	291.21
688.48	290.76
688.81	290.35
689.15	289.97
689.49	289.51
689.82	289.04
690.16	288.50
690.50	288.06
690.83	287.63
691.17	287.17
691.51	286.75
691.84	286.37
692.18	285.93
692.52	285.47
692.85	285.02
693.19	284.66
693.52	284.26
693.86	283.86
694.20	283.44
694.53	283.03
694.87	282.57
695.21	282.14
695.54	281.73
695.88	281.28
696.21	280.78
696.55	280.36
696.88	279.95
697.22	279.55
697.56	279.16
697.89	278.70
698.23	278.31
698.56	277.87
698.90	277.46
699.23	277.02
699.57	276.64
699.90	276.21
700.24	275.73
700.58	275.33
700.91	274.97
701.25	274.74
701.58	274.41
701.92	274.09
702.25	273.74
702.59	273.35
702.92	272.98
703.26	272.61
703.59	272.23
703.93	271.99
704.26	271.61
704.60	271.22
704.93	270.83
705.26	270.43
705.60	270.08
705.93	269.64
706.27	269.32
706.60	268.97
706.94	268.67
707.27	268.28
707.61	267.90
707.94	267.51
708.27	266.97
708.61	266.52
708.94	266.12
709.28	265.76
709.61	265.39
709.94	265.06
710.28	264.73
710.61	264.44
710.95	263.97
711.28	263.75
711.61	263.43
711.95	263.16
712.28	262.84
712.61	262.49
712.95	262.28
713.28	262.03
713.61	261.67
713.95	261.31
714.28	261.02
714.61	260.69
714.95	260.39
715.28	260.07
715.61	259.78
715.95	259.50
716.28	259.19
716.61	258.91
716.95	258.59
717.28	258.28
717.61	257.96
717.94	257.67
718.28	257.25
718.61	256.95
718.94	256.64
719.27	256.37
719.61	256.12
719.94	255.82
720.27	255.46
720.60	255.20
720.94	254.93
721.27	254.68
721.60	254.45
721.93	254.18
722.27	254.00
722.60	253.78
722.93	253.50
723.26	253.28
723.59	253.02
723.93	252.82
724.26	252.61
724.59	252.38
724.92	252.16
725.25	252.00
725.59	251.78
725.92	251.59
726.25	251.38
726.58	251.16
726.91	250.93
727.24	250.72
727.57	250.50
727.91	250.26
728.24	250.07
728.57	249.84
728.90	249.66
729.23	249.39
729.56	249.27
729.89	249.07
730.22	248.86
730.55	248.67
730.89	248.45
731.22	248.24
731.55	248.04
731.88	247.84
732.21	247.61
732.54	247.41
732.87	247.22
733.20	247.04
733.53	246.86
733.86	246.69
734.19	246.49
734.52	246.34
734.85	246.30
735.18	246.10
735.51	246.00
735.84	245.83
736.17	245.72
736.50	245.44
736.83	245.49
737.16	245.34
737.49	245.17
737.82	245.00
738.15	244.86
738.48	244.70
738.81	244.54
739.14	244.36
739.47	244.19
739.80	244.03
740.13	243.87
740.46	243.69
740.79	243.52
741.12	243.37
741.45	243.19
741.78	242.95
742.11	242.85
742.44	242.66
742.77	242.54
743.10	242.36
743.43	242.22
743.75	241.88
744.08	242.00
744.41	241.85
744.74	241.71
745.07	241.53
745.40	241.44
745.73	241.38
746.06	241.26
746.39	241.17
746.71	241.02
747.04	240.88
747.37	240.74
747.70	240.65
748.03	240.52
748.36	240.44
748.68	240.31
749.01	240.13
749.34	240.02
749.67	239.89
750.00	239.80
750.33	239.82
750.65	239.71
750.98	239.34
751.31	239.24
751.64	239.14
751.97	239.13
752.29	238.99
752.62	238.79
752.95	238.66
753.28	238.52
753.60	238.41
753.93	238.35
754.26	238.26
754.59	238.10
754.91	237.97
755.24	237.84
755.57	237.74
755.90	237.64
756.22	237.51
756.55	237.38
756.88	237.23
757.20	237.02
757.53	236.88
757.86	236.78
758.19	236.69
758.51	236.58
758.84	236.39
759.17	236.28
759.49	236.21
759.82	236.21
760.15	236.14
760.47	236.06
760.80	235.92
761.13	235.86
761.45	235.78
761.78	235.72
762.11	235.63
762.43	235.53
762.76	235.44
763.08	235.38
763.41	235.31
763.74	235.25
764.06	235.17
764.39	235.11
764.71	235.03
765.04	234.93
765.37	234.85
765.69	234.78
766.02	234.71
766.34	234.62
766.67	234.48
767.00	234.44
767.32	234.46
767.65	234.50
767.97	234.41
768.30	234.35
768.62	234.28
768.95	234.21
769.27	234.14
769.60	234.09
769.92	233.99
770.25	233.89
770.57	233.79
770.90	233.73
771.22	233.65
771.55	233.60
771.87	233.55
772.20	233.50
772.52	233.59
772.85	233.76
773.17	233.71
773.50	233.64
773.82	233.56
774.15	233.42
774.47	233.26
774.80	233.19
775.12	233.14
775.45	233.08
775.77	233.05
776.09	233.02
776.42	232.98
776.74	233.00
777.07	232.96
777.39	232.94
777.72	232.88
778.04	232.86
778.36	232.80
778.69	232.77
779.01	232.73
779.33	232.53
779.66	232.27
779.98	232.22
780.31	232.20
780.63	232.23
780.95	232.22
781.28	232.19
781.60	232.14
781.92	232.11
782.25	232.07
782.57	232.03
782.89	231.97
783.22	231.93
783.54	231.85
783.86	231.84
784.19	231.80
784.51	231.83
784.83	231.77
785.16	231.73
785.48	231.70
785.80	231.67
786.12	231.65
786.45	231.63
786.77	231.62
787.09	231.57
787.42	231.49
787.74	231.46
788.06	231.43
788.38	231.42
788.71	231.36
789.03	231.35
789.35	231.35
789.67	231.30
789.99	231.29
790.32	231.24
790.64	231.23
790.96	231.36
791.28	231.27
791.61	231.24
791.93	231.24
792.25	231.20
792.57	231.29
792.89	231.25
793.21	231.22
793.54	231.18
793.86	231.15
794.18	231.12
794.50	231.07
794.82	231.04
795.14	231.03
795.47	231.04
795.79	231.02
796.11	230.96
796.43	230.93
796.75	230.91
797.07	230.90
797.39	230.86
797.71	230.69
798.04	230.69
798.36	230.69
798.68	230.66
799.00	230.65
799.32	230.54
799.64	230.56
799.96	230.55
800.28	230.57
800.60	230.54
800.92	230.54
801.24	230.52
801.56	230.53
801.89	230.49
802.21	230.48
802.53	230.42
802.85	230.45
803.17	230.51
803.49	230.46
803.81	230.43
804.13	230.39
804.45	230.36
804.77	230.36
805.09	230.34
805.41	230.30
805.73	230.26
806.05	230.19
806.37	230.16
806.69	230.12
807.01	230.08
807.33	230.09
807.65	230.00
807.97	230.07
808.28	230.03
808.60	230.02
808.92	229.99
809.24	230.09
809.56	230.05
809.88	229.96
810.20	229.96
810.52	229.99
810.84	229.96
811.16	229.93
811.48	229.91
811.80	229.95
812.12	229.94
812.43	229.97
812.75	229.97
813.07	229.95
813.39	229.94
813.71	229.91
814.03	229.88
814.35	229.89
814.67	229.82
814.98	229.79
815.30	229.76
815.62	229.71
815.94	229.59
816.26	229.60
816.58	229.56
816.89	229.57
817.21	229.52
817.53	229.52
817.85	229.53
818.17	229.51
818.48	229.43
818.80	229.45
819.12	229.42
819.44	229.37
819.76	229.34
820.07	229.31
820.39	229.30
820.71	229.30
821.03	229.28
821.34	229.26
821.66	229.29
821.98	229.30
822.30	229.28
822.61	229.37
822.93	229.33
823.25	229.33
823.57	229.31
823.88	229.31
824.20	229.29
824.52	229.31
824.83	229.28
825.15	229.25
825.47	229.22
825.79	229.23
826.10	229.23
826.42	229.22
826.74	229.24
827.05	229.22
827.37	229.22
827.69	229.21
828.00	229.20
828.32	229.17
828.64	229.15
828.95	229.24
829.27	229.18
829.58	229.17
829.90	229.19
830.22	229.20
830.53	229.17
830.85	229.14
831.17	229.09
831.48	229.09
831.80	229.10
832.11	229.09
832.43	229.06
832.75	229.05
833.06	229.15
833.38	229.09
833.69	229.08
834.01	229.07
834.32	229.05
834.64	229.02
834.96	229.02
835.27	229.02
835.59	228.94
835.90	228.91
836.22	228.91
836.53	228.86
836.85	228.84
837.16	229.01
837.48	229.01
837.79	229.06
838.11	229.06
838.42	229.06
838.74	229.06
839.05	229.03
839.37	229.03
839.68	228.92
840.00	228.92
840.31	228.94
840.63	228.92
840.94	228.90
841.26	228.89
841.57	228.89
841.88	228.89
842.20	228.86
842.51	228.81
842.83	228.80
843.14	228.96
843.46	228.94
843.77	228.83
844.08	228.81
844.40	228.76
844.71	228.73
845.03	228.70
845.34	228.68
845.65	228.68
845.97	228.66
846.28	228.67
846.60	228.67
846.91	228.63
847.22	228.62
847.54	228.65
847.85	228.67
848.16	228.65
848.48	228.61
848.79	228.67
849.10	228.70
849.42	228.71
849.73	228.52
850.04	228.52
850.36	228.46
850.67	228.49
850.98	228.49
851.30	228.50
851.61	228.50
851.92	228.51
852.23	228.56
852.55	228.57
852.86	228.57
853.17	228.59
853.49	228.63
853.80	228.65
854.11	228.66
854.42	228.67
854.74	228.65
855.05	228.67
855.36	228.59
855.67	228.59
855.99	228.59
856.30	228.80
856.61	228.79
856.92	228.79
857.23	228.79
857.55	228.77
857.86	228.76
858.17	228.77
858.48	228.74
858.79	228.69
859.11	228.71
859.42	228.68
859.73	228.66
860.04	228.64
860.35	228.59
860.66	228.55
860.98	228.55
861.29	228.57
861.60	228.55
861.91	228.59
862.22	228.55
862.53	228.52
862.84	228.32
863.16	228.36
863.47	228.32
863.78	228.30
864.09	228.32
864.40	228.33
864.71	228.33
865.02	228.35
865.33	228.33
865.64	228.30
865.95	228.30
866.27	228.40
866.58	228.38
866.89	228.40
867.20	228.39
867.51	228.35
867.82	228.33
868.13	228.38
868.44	228.33
868.75	228.37
869.06	228.39
869.37	228.40
869.68	228.35
869.99	228.38
870.30	228.40
870.61	228.40
870.92	228.37
871.23	228.37
871.54	228.38
871.85	228.42
872.16	228.44
872.47	228.42
872.78	228.32
873.09	228.34
873.40	228.33
873.71	228.34
874.02	228.35
874.33	228.34
874.64	228.29
874.95	228.33
875.26	228.29
875.56	228.27
875.87	228.25
876.18	228.25
876.49	228.42
876.80	228.40
877.11	228.37
877.42	228.38
877.73	228.37
878.04	228.33
878.35	228.33
878.66	228.33
878.96	228.34
879.27	228.34
879.58	228.33
879.89	228.33
880.20	228.38
880.51	228.38
880.82	228.39
881.12	228.40
881.43	228.36
881.74	228.34
882.05	228.33
882.36	228.35
882.67	228.37
882.97	228.16
883.28	228.15
883.59	228.16
883.90	228.17
884.21	228.20
884.51	228.20
884.82	228.17
885.13	228.17
885.44	228.17
885.74	228.18
886.05	228.16
886.36	228.16
886.67	228.09
886.98	228.18
887.28	228.19
887.59	228.19
887.90	228.20
888.20	228.21
888.51	228.25
888.82	228.21
889.13	228.22
889.43	228.38
889.74	228.37
890.05	228.36
890.35	228.33
890.66	228.31
890.97	228.29
891.28	228.28
891.58	228.27
891.89	228.28
892.20	228.25
892.50	228.24
892.81	228.23
893.12	228.22
893.42	228.12
893.73	228.12
894.04	228.13
894.34	228.15
894.65	228.14
894.95	228.12
895.26	228.13
895.57	228.21
895.87	228.03
896.18	228.07
896.48	228.08
896.79	228.08
897.10	228.10
897.40	228.12
897.71	228.12
898.01	228.11
898.32	228.12
898.63	228.13
898.93	228.13
899.24	228.14
899.54	228.14
899.85	228.13
900.15	228.12
900.46	228.11
900.76	228.11
901.07	228.10
901.38	228.08
901.68	228.11
901.99	228.02
902.29	228.04
902.60	228.02
902.90	228.01
903.21	228.01
903.51	227.99
903.82	228.02
904.12	228.02
904.43	228.02
904.73	228.00
905.03	228.01
905.34	228.18
905.64	228.18
905.95	228.18
906.25	228.19
906.56	228.19
906.86	228.19
907.17	228.18
907.47	228.21
907.77	228.19
908.08	228.16
908.38	228.17
908.69	228.18
908.99	228.21
909.30	228.22
909.60	228.23
909.90	228.23
910.21	228.19
910.51	228.17
910.81	228.19
911.12	228.19
911.42	228.19
911.73	228.00
912.03	228.01
912.33	228.06
912.64	228.03
912.94	228.01
913.24	227.98
913.55	227.96
913.85	227.94
914.15	227.98
914.46	228.00
914.76	227.98
915.06	227.98
915.37	227.94
915.67	227.92
915.97	227.91
916.27	227.87
916.58	227.88
916.88	227.86
917.18	227.84
917.49	227.95
917.79	227.95
918.09	227.97
918.39	228.01
918.70	227.99
919.00	228.01
919.30	228.10
919.60	228.09
919.91	228.08
920.21	228.09
920.51	228.06
920.81	228.04
921.12	228.07
921.42	228.07
921.72	228.10
922.02	228.11
922.32	228.14
922.63	228.15
922.93	228.26
923.23	228.28
923.53	228.27
923.83	228.15
924.13	228.16
924.44	228.17
924.74	228.19
925.04	228.24
925.34	228.23
925.64	228.15
925.94	228.16
926.24	228.26
926.55	228.24
926.85	228.26
927.15	228.25
927.45	228.24
927.75	228.24
928.05	228.24
928.35	228.22
928.65	228.24
928.95	228.26
929.26	228.18
929.56	228.21
929.86	228.23
930.16	228.22
930.46	228.22
930.76	228.21
931.06	228.13
931.36	228.06
931.66	228.09
931.96	228.12
932.26	228.13
932.56	228.06
932.86	228.08
933.16	228.06
933.46	228.06
933.76	228.04
934.06	228.07
934.36	228.12
934.66	228.12
934.96	228.09
935.26	228.10
935.56	228.12
935.86	228.07
936.16	228.05
936.46	228.03
936.76	228.03
937.06	228.00
937.36	228.01
937.66	228.03
937.96	228.01
938.26	227.97
938.56	227.95
938.86	227.96
939.16	228.00
939.46	228.03
939.76	228.04
940.06	228.03
940.35	227.99
940.65	227.91
940.95	227.91
941.25	227.86
941.55	227.83
941.85	227.81
942.15	227.85
942.45	227.89
942.75	227.88
943.04	227.87
943.34	227.91
943.64	227.89
943.94	227.87
944.24	227.86
944.54	227.88
944.84	227.87
945.13	227.83
945.43	227.79
945.73	227.77
946.03	227.75
946.33	227.73
946.62	227.71
946.92	227.71
947.22	227.73
947.52	227.75
947.82	227.77
948.11	227.76
948.41	227.74
948.71	227.68
949.01	227.69
949.31	227.69
949.60	227.68
949.90	227.70
950.20	227.69
950.50	227.70
950.79	227.68
951.09	227.71
951.39	227.71
951.69	227.71
951.98	227.74
952.28	227.75
952.58	227.75
952.87	227.76
953.17	227.78
953.47	227.76
953.76	227.76
954.06	227.72
954.36	227.69
954.66	227.68
954.95	227.75
955.25	227.77
955.55	227.79
955.84	227.76
956.14	227.77
956.44	227.79
956.73	227.76
957.03	227.77
957.32	227.77
957.62	227.76
957.92	227.80
958.21	227.79
958.51	227.99
958.81	228.01
959.10	228.03
959.40	228.07
959.69	228.09
959.99	228.12
960.29	228.13
960.58	228.14
960.88	228.21
961.17	228.19
961.47	228.19
961.76	228.17
962.06	228.21
962.36	228.20
962.65	228.20
962.95	228.22
963.24	228.21
963.54	228.20
963.83	228.22
964.13	228.20
964.42	228.19
964.72	228.03
965.01	228.04
965.31	228.03
965.60	227.98
965.90	228.09
966.19	228.04
966.49	228.04
966.78	228.04
967.08	228.02
967.37	228.02
967.67	227.99
967.96	228.03
968.26	228.01
968.55	228.05
968.85	228.04
969.14	228.04
969.43	228.04
969.73	228.03
970.02	228.02
970.32	228.02
970.61	227.99
970.91	227.93
971.20	227.90
971.49	227.88
971.79	227.91
972.08	227.79
972.38	227.81
972.67	227.80
972.96	227.82
973.26	227.79
973.55	227.84
973.85	227.82
974.14	227.81
974.43	227.81
974.73	227.77
975.02	227.76
975.31	227.76
975.61	227.76
975.90	227.76
976.19	227.75
976.49	227.76
976.78	227.78
977.07	227.78
977.37	227.80
977.66	227.83
977.95	227.81
978.24	227.82
978.54	227.85
978.83	227.83
979.12	227.83
979.42	227.83
979.71	227.79
980.00	227.79
980.29	227.79
980.59	227.77
980.88	227.82
981.17	227.81
981.46	227.81
981.76	227.81
982.05	227.85
982.34	227.86
982.63	227.86
982.93	227.86
983.22	227.91
983.51	227.91
983.80	227.93
984.09	227.95
984.39	227.94
984.68	227.92
984.97	227.94
985.26	227.92
985.55	227.94
985.85	227.89
986.14	227.93
986.43	227.95
986.72	227.94
987.01	227.88
987.30	227.89
987.59	227.88
987.89	227.89
988.18	227.84
988.47	227.84
988.76	227.82
989.05	227.81
989.34	227.78
989.63	227.83
989.92	227.80
990.22	227.77
990.51	227.77
990.80	227.76
991.09	227.78
991.38	227.81
991.67	227.79
991.96	227.80
992.25	227.79
992.54	227.76
992.83	227.76
993.12	227.75
993.41	227.78
993.70	227.85
993.99	227.87
994.28	227.89
994.58	227.93
994.87	227.90
995.16	227.89
995.45	227.88
995.74	227.81
996.03	227.84
996.32	227.87
996.61	227.91
996.90	227.91
997.19	227.89
997.48	227.89
997.77	227.88
998.06	227.89
998.34	227.88
998.63	227.88
998.92	227.89
999.21	227.92
999.50	227.91
999.79	227.84
1000.08	227.84
1000.37	227.84
1000.66	227.80
1000.95	227.86
1001.24	227.86
1001.53	227.89
1001.82	227.89
1002.11	227.84
1002.40	227.83
1002.68	227.86
1002.97	227.97
1003.26	227.95
1003.55	227.92
1003.84	227.93
1004.13	227.97
1004.42	227.97
1004.71	227.97
1004.99	227.96
1005.28	227.99
1005.57	227.98
1005.86	227.97
1006.15	227.94
1006.44	227.92
1006.72	227.95
1007.01	227.92
1007.30	227.93
1007.59	227.92
1007.88	227.91
1008.17	227.92
1008.45	227.90
1008.74	227.84
1009.03	227.75
1009.32	227.76
1009.60	227.76
1009.89	227.74
1010.18	227.67
1010.47	227.66
1010.76	227.66
1011.04	227.66
1011.33	227.65
1011.62	227.66
1011.91	227.68
1012.19	227.69
1012.48	227.70
1012.77	227.68
1013.05	227.73
1013.34	227.71
1013.63	227.70
1013.92	227.72
1014.20	227.71
1014.49	227.71
1014.78	227.73
1015.06	227.68
1015.35	227.68
1015.64	227.71
1015.92	227.74
1016.21	227.74
1016.50	227.75
1016.78	227.77
1017.07	227.78
1017.36	227.75
1017.64	227.73
1017.93	227.74
1018.22	227.72
1018.50	227.72
1018.79	227.71
1019.08	227.67
1019.36	227.68
1019.65	227.67
1019.93	227.72
1020.22	227.74
1020.51	227.83
1020.79	227.81
1021.08	227.44
1021.36	227.52
1021.65	227.62
1021.94	227.80
1022.22	227.75
1022.51	227.45
1022.79	228.57
1023.08	227.90
1023.36	229.83
1023.65	227.36
>>>>>End Processed Spectral Data<<<<<
