SpectraSuite Data File
++++++++++++++++++++++++++++++++++++
Date: Tue Oct 06 17:30:35 EDT 2015
User: lab3
Dark Spectrum Present: No
Reference Spectrum Present: No
Number of Sampled Component Spectra: 1
Spectrometers: USB2E7196
Integration Time (usec): 66000 (USB2E7196)
Spectra Averaged: 1000 (USB2E7196)
Boxcar Smoothing: 10 (USB2E7196)
Correct for Electrical Dark: No (USB2E7196)
Strobe/Lamp Enabled: No (USB2E7196)
Correct for Detector Non-linearity: No (USB2E7196)
Correct for Stray Light: No (USB2E7196)
Number of Pixels in Processed Spectrum: 2048
>>>>>Begin Processed Spectral Data<<<<<
339.09	0.00
339.48	215.11
339.86	216.87
340.24	217.94
340.63	219.28
341.01	223.50
341.39	222.25
341.78	223.72
342.16	224.96
342.54	225.28
342.93	213.69
343.31	224.48
343.69	225.02
344.07	225.46
344.46	225.91
344.84	226.32
345.22	226.52
345.60	226.80
345.99	226.99
346.37	227.14
346.75	227.26
347.13	227.35
347.52	227.44
347.90	227.56
348.28	227.60
348.66	227.68
349.05	227.67
349.43	227.75
349.81	227.82
350.19	227.89
350.57	227.97
350.96	228.07
351.34	228.18
351.72	228.29
352.10	228.42
352.48	228.49
352.87	228.55
353.25	228.62
353.63	228.67
354.01	228.73
354.39	228.80
354.77	228.88
355.15	229.00
355.54	229.03
355.92	229.04
356.30	229.12
356.68	229.30
357.06	229.38
357.44	229.43
357.82	229.48
358.20	229.70
358.58	229.75
358.97	229.81
359.35	229.92
359.73	230.01
360.11	230.06
360.49	230.12
360.87	230.16
361.25	230.24
361.63	230.34
362.01	230.39
362.39	230.43
362.77	230.48
363.15	230.49
363.53	230.53
363.91	230.57
364.29	230.58
364.67	230.44
365.05	230.47
365.43	230.51
365.81	230.55
366.19	230.50
366.57	230.58
366.95	230.58
367.33	230.52
367.71	230.50
368.09	230.53
368.47	230.52
368.85	230.52
369.23	230.54
369.61	230.47
369.99	230.51
370.37	230.50
370.75	230.62
371.13	230.59
371.51	230.55
371.89	230.54
372.27	230.54
372.65	230.51
373.03	230.47
373.41	230.43
373.78	230.37
374.16	230.25
374.54	230.14
374.92	230.09
375.30	230.06
375.68	229.98
376.06	229.95
376.44	229.89
376.82	229.84
377.19	229.79
377.57	229.74
377.95	229.63
378.33	229.57
378.71	229.37
379.09	229.32
379.47	229.29
379.84	229.23
380.22	229.16
380.60	229.08
380.98	229.04
381.36	228.99
381.73	228.92
382.11	228.90
382.49	228.87
382.87	228.80
383.25	228.77
383.62	228.94
384.00	228.87
384.38	228.83
384.76	228.83
385.13	228.85
385.51	228.81
385.89	228.76
386.27	228.74
386.64	228.74
387.02	228.69
387.40	228.64
387.78	228.61
388.15	228.60
388.53	228.56
388.91	228.54
389.29	228.51
389.66	228.53
390.04	228.49
390.42	228.51
390.79	228.51
391.17	228.50
391.55	228.28
391.92	228.29
392.30	228.30
392.68	228.25
393.05	228.23
393.43	228.24
393.81	228.26
394.18	228.24
394.56	228.25
394.94	228.30
395.31	228.31
395.69	228.40
396.06	228.46
396.44	228.51
396.82	228.54
397.19	228.67
397.57	228.69
397.95	228.76
398.32	228.76
398.70	228.82
399.07	228.92
399.45	228.98
399.82	229.05
400.20	229.11
400.58	229.21
400.95	229.24
401.33	229.35
401.70	229.59
402.08	229.73
402.45	229.86
402.83	230.02
403.20	230.19
403.58	230.30
403.95	230.51
404.33	230.72
404.71	230.92
405.08	231.23
405.46	231.47
405.83	231.75
406.21	232.03
406.58	232.36
406.96	232.68
407.33	233.06
407.70	233.48
408.08	234.06
408.45	234.56
408.83	235.11
409.20	235.62
409.58	236.06
409.95	236.70
410.33	237.38
410.70	238.03
411.08	238.78
411.45	239.59
411.82	240.41
412.20	241.34
412.57	242.46
412.95	243.35
413.32	244.49
413.69	245.66
414.07	246.91
414.44	248.28
414.82	249.69
415.19	251.31
415.56	252.98
415.94	254.72
416.31	256.68
416.68	258.64
417.06	260.91
417.43	263.04
417.81	265.47
418.18	267.97
418.55	270.68
418.93	273.51
419.30	276.47
419.67	279.60
420.04	282.84
420.42	286.22
420.79	290.11
421.16	294.06
421.54	298.03
421.91	302.23
422.28	306.56
422.66	311.22
423.03	315.67
423.40	320.33
423.77	325.31
424.15	330.41
424.52	335.70
424.89	341.43
425.26	347.14
425.64	352.42
426.01	358.34
426.38	364.40
426.75	370.66
427.13	377.03
427.50	383.72
427.87	390.63
428.24	397.62
428.61	404.34
428.99	411.56
429.36	419.50
429.73	427.06
430.10	434.64
430.47	442.37
430.85	450.37
431.22	458.89
431.59	467.61
431.96	476.14
432.33	485.62
432.70	494.65
433.08	505.31
433.45	515.38
433.82	525.34
434.19	536.50
434.56	547.47
434.93	558.13
435.30	568.69
435.68	580.70
436.05	592.39
436.42	604.12
436.79	614.84
437.16	626.50
437.53	638.98
437.90	651.42
438.27	663.66
438.64	676.89
439.01	688.88
439.38	699.90
439.75	710.56
440.13	722.66
440.50	734.19
440.87	743.41
441.24	753.55
441.61	764.66
441.98	772.84
442.35	782.58
442.72	792.49
443.09	801.91
443.46	808.00
443.83	812.68
444.20	816.51
444.57	822.09
444.94	825.41
445.31	828.79
445.68	831.71
446.05	833.89
446.42	833.55
446.79	832.95
447.16	832.47
447.53	832.06
447.90	828.48
448.27	825.03
448.64	819.62
449.01	815.86
449.37	808.13
449.74	801.12
450.11	792.06
450.48	782.12
450.85	772.16
451.22	763.59
451.59	755.15
451.96	747.50
452.33	736.44
452.70	726.60
453.07	714.70
453.43	702.82
453.80	691.21
454.17	680.11
454.54	669.89
454.91	658.32
455.28	647.41
455.65	637.12
456.02	626.23
456.38	617.49
456.75	606.31
457.12	597.27
457.49	588.16
457.86	579.54
458.23	571.91
458.59	563.55
458.96	555.00
459.33	547.45
459.70	539.79
460.07	533.95
460.43	527.05
460.80	520.60
461.17	515.00
461.54	508.97
461.91	503.27
462.27	497.49
462.64	492.77
463.01	487.36
463.38	481.93
463.74	477.02
464.11	472.64
464.48	468.71
464.85	464.46
465.21	461.20
465.58	457.58
465.95	453.49
466.32	450.23
466.68	447.04
467.05	443.80
467.42	440.67
467.78	437.33
468.15	434.25
468.52	432.00
468.88	429.00
469.25	426.26
469.62	424.11
469.98	421.75
470.35	419.65
470.72	417.74
471.08	415.82
471.45	414.20
471.82	412.41
472.18	410.53
472.55	409.32
472.92	407.79
473.28	406.63
473.65	405.38
474.02	404.16
474.38	403.14
474.75	402.56
475.11	401.73
475.48	401.35
475.85	400.91
476.21	400.64
476.58	400.49
476.94	400.66
477.31	400.71
477.67	400.80
478.04	401.11
478.41	401.56
478.77	402.19
479.14	402.57
479.50	403.37
479.87	404.38
480.23	405.38
480.60	406.33
480.96	407.26
481.33	408.70
481.69	410.13
482.06	411.54
482.42	412.84
482.79	414.46
483.15	416.34
483.52	418.49
483.88	420.52
484.25	422.67
484.61	424.93
484.98	427.36
485.34	430.10
485.71	432.97
486.07	436.04
486.44	439.06
486.80	442.46
487.17	445.94
487.53	449.67
487.90	453.62
488.26	457.94
488.62	462.47
488.99	466.98
489.35	471.70
489.72	476.80
490.08	482.16
490.44	487.63
490.81	493.34
491.17	499.20
491.54	505.51
491.90	511.95
492.26	518.84
492.63	526.06
492.99	533.57
493.36	541.23
493.72	549.27
494.08	557.53
494.45	566.19
494.81	575.23
495.17	584.54
495.54	594.35
495.90	604.58
496.26	615.01
496.63	625.72
496.99	636.84
497.35	648.42
497.72	660.32
498.08	672.53
498.44	685.05
498.80	698.28
499.17	711.75
499.53	725.66
499.89	740.02
500.26	754.53
500.62	769.45
500.98	785.19
501.34	800.96
501.71	817.53
502.07	834.37
502.43	851.65
502.79	869.12
503.16	887.08
503.52	905.23
503.88	923.77
504.24	942.78
504.60	961.99
504.97	981.88
505.33	1002.15
505.69	1023.47
506.05	1045.00
506.41	1066.40
506.78	1087.96
507.14	1110.06
507.50	1132.60
507.86	1155.55
508.22	1178.66
508.59	1201.64
508.95	1225.64
509.31	1250.02
509.67	1275.02
510.03	1299.95
510.39	1324.78
510.75	1349.68
511.12	1374.92
511.48	1400.30
511.84	1425.62
512.20	1451.29
512.56	1477.93
512.92	1504.39
513.28	1530.22
513.64	1556.40
514.00	1582.89
514.37	1609.62
514.73	1636.39
515.09	1662.41
515.45	1688.74
515.81	1715.17
516.17	1741.31
516.53	1766.78
516.89	1792.11
517.25	1817.71
517.61	1843.05
517.97	1869.02
518.33	1894.34
518.69	1919.51
519.05	1945.06
519.41	1970.72
519.77	1996.30
520.13	2020.36
520.49	2044.45
520.85	2068.91
521.21	2092.80
521.57	2116.96
521.93	2140.11
522.29	2163.77
522.65	2187.27
523.01	2210.42
523.37	2232.90
523.73	2256.07
524.09	2278.88
524.45	2301.33
524.81	2323.07
525.17	2344.66
525.53	2365.46
525.89	2386.62
526.25	2407.40
526.61	2426.57
526.97	2445.76
527.33	2464.71
527.68	2483.42
528.04	2501.82
528.40	2518.83
528.76	2536.00
529.12	2552.74
529.48	2569.98
529.84	2584.60
530.20	2599.54
530.56	2613.67
530.91	2627.96
531.27	2641.67
531.63	2654.41
531.99	2666.90
532.35	2679.14
532.71	2690.85
533.07	2702.90
533.42	2713.10
533.78	2723.51
534.14	2734.79
534.50	2744.96
534.86	2755.70
535.21	2764.40
535.57	2772.81
535.93	2781.15
536.29	2787.70
536.65	2794.05
537.00	2799.07
537.36	2805.35
537.72	2810.73
538.08	2815.53
538.44	2819.21
538.79	2822.66
539.15	2824.83
539.51	2826.27
539.87	2826.53
540.22	2825.34
540.58	2824.33
540.94	2824.15
541.29	2822.82
541.65	2820.27
542.01	2817.28
542.37	2812.69
542.72	2809.57
543.08	2804.91
543.44	2800.46
543.79	2795.63
544.15	2790.11
544.51	2784.69
544.87	2778.28
545.22	2771.00
545.58	2763.64
545.94	2756.52
546.29	2747.86
546.65	2739.56
547.01	2731.37
547.36	2723.55
547.72	2715.96
548.07	2706.71
548.43	2696.34
548.79	2685.81
549.14	2675.58
549.50	2665.53
549.86	2654.57
550.21	2642.17
550.57	2630.83
550.92	2617.80
551.28	2605.21
551.64	2592.83
551.99	2580.22
552.35	2567.31
552.70	2554.23
553.06	2541.56
553.41	2528.52
553.77	2515.26
554.13	2502.05
554.48	2487.85
554.84	2472.85
555.19	2458.32
555.55	2443.77
555.90	2429.70
556.26	2415.87
556.61	2401.00
556.97	2385.14
557.32	2369.84
557.68	2354.84
558.03	2339.57
558.39	2325.20
558.74	2311.51
559.10	2295.98
559.45	2280.79
559.81	2266.17
560.16	2251.30
560.52	2236.20
560.87	2221.29
561.23	2206.10
561.58	2191.43
561.94	2176.30
562.29	2160.83
562.64	2145.48
563.00	2130.24
563.35	2115.15
563.71	2099.78
564.06	2084.54
564.42	2069.89
564.77	2055.27
565.12	2040.34
565.48	2025.21
565.83	2010.35
566.19	1995.41
566.54	1980.86
566.89	1965.69
567.25	1950.49
567.60	1936.08
567.96	1920.99
568.31	1904.75
568.66	1889.44
569.02	1874.61
569.37	1860.39
569.72	1846.68
570.08	1832.52
570.43	1817.84
570.78	1803.08
571.14	1788.08
571.49	1773.19
571.84	1758.60
572.20	1742.90
572.55	1728.00
572.90	1713.21
573.26	1698.40
573.61	1683.05
573.96	1668.18
574.31	1653.19
574.67	1638.02
575.02	1622.59
575.37	1607.25
575.72	1592.58
576.08	1577.69
576.43	1562.31
576.78	1546.99
577.13	1531.93
577.49	1517.17
577.84	1502.87
578.19	1488.02
578.54	1473.32
578.90	1458.52
579.25	1443.58
579.60	1429.76
579.95	1415.71
580.30	1401.61
580.66	1387.28
581.01	1372.99
581.36	1358.88
581.71	1345.45
582.06	1332.08
582.42	1318.55
582.77	1305.49
583.12	1292.68
583.47	1279.78
583.82	1266.96
584.17	1253.83
584.53	1240.79
584.88	1228.01
585.23	1215.08
585.58	1202.53
585.93	1189.91
586.28	1178.24
586.63	1166.42
586.98	1154.27
587.34	1142.47
587.69	1130.49
588.04	1118.84
588.39	1107.48
588.74	1095.71
589.09	1084.15
589.44	1072.33
589.79	1061.03
590.14	1049.79
590.49	1038.60
590.84	1027.69
591.19	1017.04
591.54	1006.47
591.89	995.55
592.25	984.99
592.60	974.29
592.95	963.79
593.30	953.62
593.65	943.18
594.00	933.00
594.35	923.65
594.70	913.65
595.05	904.23
595.40	894.63
595.75	884.92
596.10	875.81
596.45	866.66
596.80	857.85
597.15	849.06
597.50	840.29
597.85	831.72
598.19	823.11
598.54	814.56
598.89	806.48
599.24	798.75
599.59	790.82
599.94	783.50
600.29	776.20
600.64	768.75
600.99	761.22
601.34	753.93
601.69	746.12
602.04	739.20
602.39	732.17
602.74	725.31
603.08	718.61
603.43	711.89
603.78	705.13
604.13	698.45
604.48	691.82
604.83	685.39
605.18	679.05
605.53	672.87
605.87	666.64
606.22	660.51
606.57	654.31
606.92	648.04
607.27	641.83
607.62	635.78
607.96	629.96
608.31	624.56
608.66	619.11
609.01	613.89
609.36	608.63
609.70	603.35
610.05	598.09
610.40	592.98
610.75	587.84
611.10	582.93
611.44	578.04
611.79	573.22
612.14	568.34
612.49	563.54
612.83	558.99
613.18	554.45
613.53	549.95
613.88	545.59
614.22	541.56
614.57	537.41
614.92	533.37
615.27	529.46
615.61	525.42
615.96	521.43
616.31	517.45
616.65	513.63
617.00	509.88
617.35	506.20
617.70	502.53
618.04	498.98
618.39	495.53
618.74	492.30
619.08	489.03
619.43	485.87
619.78	482.64
620.12	479.41
620.47	476.39
620.82	473.45
621.16	470.49
621.51	467.59
621.85	464.72
622.20	461.90
622.55	459.04
622.89	456.24
623.24	453.61
623.59	451.04
623.93	448.50
624.28	446.12
624.62	443.93
624.97	441.72
625.32	439.44
625.66	437.11
626.01	434.74
626.35	432.53
626.70	430.25
627.04	428.17
627.39	426.03
627.73	424.00
628.08	422.00
628.43	420.02
628.77	417.95
629.12	416.00
629.46	414.14
629.81	412.42
630.15	410.63
630.50	408.84
630.84	407.10
631.19	405.41
631.53	403.77
631.88	401.96
632.22	400.26
632.57	398.81
632.91	397.33
633.26	395.93
633.60	394.51
633.95	393.20
634.29	391.75
634.64	390.38
634.98	388.86
635.32	387.50
635.67	386.30
636.01	385.07
636.36	383.88
636.70	382.76
637.05	381.50
637.39	380.36
637.73	379.23
638.08	378.15
638.42	377.13
638.77	375.96
639.11	374.77
639.45	373.63
639.80	372.41
640.14	371.26
640.49	370.14
640.83	369.01
641.17	367.91
641.52	366.85
641.86	365.81
642.20	364.91
642.55	363.83
642.89	362.78
643.23	361.79
643.58	360.92
643.92	359.90
644.26	358.96
644.61	358.08
644.95	357.14
645.29	356.15
645.64	355.10
645.98	354.17
646.32	353.37
646.66	352.49
647.01	351.65
647.35	350.89
647.69	350.09
648.04	349.36
648.38	348.57
648.72	347.82
649.06	347.06
649.41	346.27
649.75	345.53
650.09	344.82
650.43	344.08
650.78	343.29
651.12	342.57
651.46	341.85
651.80	341.11
652.14	340.44
652.49	339.83
652.83	339.16
653.17	338.46
653.51	337.78
653.85	337.21
654.20	336.58
654.54	335.84
654.88	335.13
655.22	334.50
655.56	333.83
655.90	333.18
656.25	332.56
656.59	331.95
656.93	331.37
657.27	330.83
657.61	330.22
657.95	329.66
658.29	329.07
658.64	328.51
658.98	327.91
659.32	327.31
659.66	326.74
660.00	326.21
660.34	325.69
660.68	325.10
661.02	324.46
661.36	323.89
661.70	323.34
662.05	322.80
662.39	322.27
662.73	321.81
663.07	321.40
663.41	320.93
663.75	320.40
664.09	319.89
664.43	319.29
664.77	318.77
665.11	318.20
665.45	317.69
665.79	317.20
666.13	316.68
666.47	316.15
666.81	315.60
667.15	315.01
667.49	314.56
667.83	314.15
668.17	313.70
668.51	313.28
668.85	312.89
669.19	312.54
669.53	312.00
669.87	311.46
670.21	310.92
670.55	310.40
670.89	310.01
671.23	309.56
671.57	309.15
671.91	308.80
672.25	308.46
672.58	308.12
672.92	307.67
673.26	307.31
673.60	306.96
673.94	306.58
674.28	306.24
674.62	305.84
674.96	305.39
675.30	305.00
675.64	304.56
675.97	304.08
676.31	303.59
676.65	303.19
676.99	302.86
677.33	302.43
677.67	302.06
678.01	301.58
678.34	301.16
678.68	300.78
679.02	300.32
679.36	299.88
679.70	299.43
680.04	299.04
680.37	298.62
680.71	298.24
681.05	297.87
681.39	297.45
681.73	296.99
682.06	296.57
682.40	296.17
682.74	295.82
683.08	295.53
683.42	295.15
683.75	294.80
684.09	294.34
684.43	293.95
684.77	293.54
685.10	293.15
685.44	292.75
685.78	292.34
686.12	291.94
686.45	291.54
686.79	291.10
687.13	290.70
687.46	290.27
687.80	289.87
688.14	289.40
688.48	288.99
688.81	288.58
689.15	288.23
689.49	287.81
689.82	287.38
690.16	286.84
690.50	286.41
690.83	285.98
691.17	285.54
691.51	285.11
691.84	284.72
692.18	284.31
692.52	283.86
692.85	283.42
693.19	283.07
693.52	282.65
693.86	282.22
694.20	281.81
694.53	281.41
694.87	280.94
695.21	280.52
695.54	280.12
695.88	279.68
696.21	279.21
696.55	278.77
696.88	278.36
697.22	277.96
697.56	277.58
697.89	277.12
698.23	276.72
698.56	276.30
698.90	275.91
699.23	275.48
699.57	275.11
699.90	274.70
700.24	274.25
700.58	273.87
700.91	273.53
701.25	273.30
701.58	272.99
701.92	272.67
702.25	272.30
702.59	271.90
702.92	271.53
703.26	271.15
703.59	270.77
703.93	270.52
704.26	270.17
704.60	269.77
704.93	269.42
705.26	269.04
705.60	268.72
705.93	268.28
706.27	267.99
706.60	267.67
706.94	267.38
707.27	267.00
707.61	266.64
707.94	266.24
708.27	265.72
708.61	265.29
708.94	264.89
709.28	264.55
709.61	264.20
709.94	263.88
710.28	263.56
710.61	263.26
710.95	262.77
711.28	262.56
711.61	262.23
711.95	261.93
712.28	261.59
712.61	261.25
712.95	261.04
713.28	260.77
713.61	260.40
713.95	260.03
714.28	259.74
714.61	259.41
714.95	259.11
715.28	258.79
715.61	258.50
715.95	258.24
716.28	257.92
716.61	257.66
716.95	257.36
717.28	257.07
717.61	256.78
717.94	256.51
718.28	256.10
718.61	255.83
718.94	255.54
719.27	255.28
719.61	255.03
719.94	254.71
720.27	254.38
720.60	254.13
720.94	253.87
721.27	253.61
721.60	253.38
721.93	253.13
722.27	252.94
722.60	252.71
722.93	252.43
723.26	252.21
723.59	251.94
723.93	251.73
724.26	251.51
724.59	251.27
724.92	251.06
725.25	250.90
725.59	250.68
725.92	250.48
726.25	250.26
726.58	250.04
726.91	249.81
727.24	249.61
727.57	249.40
727.91	249.15
728.24	248.98
728.57	248.76
728.90	248.57
729.23	248.30
729.56	248.17
729.89	247.98
730.22	247.77
730.55	247.57
730.89	247.36
731.22	247.16
731.55	246.97
731.88	246.77
732.21	246.53
732.54	246.32
732.87	246.14
733.20	245.98
733.53	245.81
733.86	245.65
734.19	245.44
734.52	245.30
734.85	245.27
735.18	245.07
735.51	244.96
735.84	244.81
736.17	244.71
736.50	244.46
736.83	244.50
737.16	244.35
737.49	244.21
737.82	244.03
738.15	243.89
738.48	243.73
738.81	243.56
739.14	243.41
739.47	243.25
739.80	243.08
740.13	242.94
740.46	242.76
740.79	242.57
741.12	242.42
741.45	242.25
741.78	241.98
742.11	241.88
742.44	241.68
742.77	241.56
743.10	241.37
743.43	241.23
743.75	240.90
744.08	241.01
744.41	240.85
744.74	240.72
745.07	240.56
745.40	240.47
745.73	240.41
746.06	240.29
746.39	240.19
746.71	240.04
747.04	239.89
747.37	239.76
747.70	239.67
748.03	239.56
748.36	239.47
748.68	239.35
749.01	239.18
749.34	239.07
749.67	238.95
750.00	238.87
750.33	238.88
750.65	238.78
750.98	238.40
751.31	238.30
751.64	238.22
751.97	238.20
752.29	238.07
752.62	237.88
752.95	237.76
753.28	237.62
753.60	237.51
753.93	237.45
754.26	237.35
754.59	237.19
754.91	237.06
755.24	236.93
755.57	236.84
755.90	236.74
756.22	236.63
756.55	236.50
756.88	236.35
757.20	236.12
757.53	235.97
757.86	235.88
758.19	235.80
758.51	235.69
758.84	235.50
759.17	235.39
759.49	235.32
759.82	235.32
760.15	235.25
760.47	235.16
760.80	235.02
761.13	234.96
761.45	234.88
761.78	234.81
762.11	234.74
762.43	234.62
762.76	234.53
763.08	234.48
763.41	234.41
763.74	234.35
764.06	234.28
764.39	234.22
764.71	234.14
765.04	234.04
765.37	233.96
765.69	233.88
766.02	233.82
766.34	233.73
766.67	233.60
767.00	233.56
767.32	233.59
767.65	233.64
767.97	233.56
768.30	233.50
768.62	233.43
768.95	233.34
769.27	233.28
769.60	233.25
769.92	233.15
770.25	233.06
770.57	232.97
770.90	232.91
771.22	232.84
771.55	232.80
771.87	232.77
772.20	232.70
772.52	232.81
772.85	232.97
773.17	232.91
773.50	232.85
773.82	232.77
774.15	232.63
774.47	232.46
774.80	232.40
775.12	232.36
775.45	232.31
775.77	232.27
776.09	232.24
776.42	232.19
776.74	232.21
777.07	232.16
777.39	232.13
777.72	232.07
778.04	232.06
778.36	231.99
778.69	231.94
779.01	231.92
779.33	231.70
779.66	231.46
779.98	231.40
780.31	231.37
780.63	231.41
780.95	231.40
781.28	231.36
781.60	231.31
781.92	231.27
782.25	231.24
782.57	231.20
782.89	231.15
783.22	231.11
783.54	231.04
783.86	231.04
784.19	231.00
784.51	231.02
784.83	230.96
785.16	230.93
785.48	230.90
785.80	230.87
786.12	230.86
786.45	230.83
786.77	230.82
787.09	230.78
787.42	230.68
787.74	230.65
788.06	230.64
788.38	230.61
788.71	230.58
789.03	230.56
789.35	230.56
789.67	230.51
789.99	230.48
790.32	230.43
790.64	230.41
790.96	230.54
791.28	230.46
791.61	230.42
791.93	230.42
792.25	230.38
792.57	230.49
792.89	230.42
793.21	230.41
793.54	230.38
793.86	230.33
794.18	230.32
794.50	230.28
794.82	230.24
795.14	230.24
795.47	230.24
795.79	230.23
796.11	230.16
796.43	230.15
796.75	230.13
797.07	230.12
797.39	230.07
797.71	229.90
798.04	229.90
798.36	229.89
798.68	229.86
799.00	229.85
799.32	229.73
799.64	229.75
799.96	229.72
800.28	229.74
800.60	229.72
800.92	229.71
801.24	229.68
801.56	229.68
801.89	229.65
802.21	229.63
802.53	229.59
802.85	229.60
803.17	229.67
803.49	229.61
803.81	229.59
804.13	229.57
804.45	229.53
804.77	229.51
805.09	229.49
805.41	229.47
805.73	229.43
806.05	229.37
806.37	229.34
806.69	229.30
807.01	229.26
807.33	229.26
807.65	229.18
807.97	229.25
808.28	229.21
808.60	229.19
808.92	229.15
809.24	229.25
809.56	229.20
809.88	229.11
810.20	229.10
810.52	229.13
810.84	229.09
811.16	229.06
811.48	229.04
811.80	229.09
812.12	229.07
812.43	229.10
812.75	229.10
813.07	229.07
813.39	229.07
813.71	229.03
814.03	229.00
814.35	229.01
814.67	228.92
814.98	228.89
815.30	228.88
815.62	228.84
815.94	228.72
816.26	228.73
816.58	228.68
816.89	228.69
817.21	228.63
817.53	228.64
817.85	228.64
818.17	228.64
818.48	228.55
818.80	228.57
819.12	228.53
819.44	228.49
819.76	228.45
820.07	228.44
820.39	228.44
820.71	228.45
821.03	228.42
821.34	228.41
821.66	228.42
821.98	228.43
822.30	228.42
822.61	228.51
822.93	228.48
823.25	228.48
823.57	228.45
823.88	228.47
824.20	228.46
824.52	228.47
824.83	228.46
825.15	228.45
825.47	228.42
825.79	228.42
826.10	228.40
826.42	228.40
826.74	228.40
827.05	228.38
827.37	228.38
827.69	228.38
828.00	228.37
828.32	228.36
828.64	228.33
828.95	228.42
829.27	228.34
829.58	228.34
829.90	228.36
830.22	228.36
830.53	228.33
830.85	228.31
831.17	228.25
831.48	228.24
831.80	228.23
832.11	228.23
832.43	228.20
832.75	228.20
833.06	228.30
833.38	228.25
833.69	228.24
834.01	228.23
834.32	228.23
834.64	228.21
834.96	228.20
835.27	228.19
835.59	228.12
835.90	228.10
836.22	228.10
836.53	228.06
836.85	228.03
837.16	228.21
837.48	228.21
837.79	228.27
838.11	228.26
838.42	228.26
838.74	228.28
839.05	228.26
839.37	228.26
839.68	228.13
840.00	228.13
840.31	228.15
840.63	228.13
840.94	228.10
841.26	228.08
841.57	228.08
841.88	228.10
842.20	228.06
842.51	228.02
842.83	228.01
843.14	228.16
843.46	228.16
843.77	228.05
844.08	228.03
844.40	227.98
844.71	227.95
845.03	227.94
845.34	227.90
845.65	227.90
845.97	227.88
846.28	227.90
846.60	227.90
846.91	227.87
847.22	227.86
847.54	227.90
847.85	227.92
848.16	227.90
848.48	227.84
848.79	227.92
849.10	227.95
849.42	227.95
849.73	227.79
850.04	227.79
850.36	227.71
850.67	227.73
850.98	227.75
851.30	227.76
851.61	227.75
851.92	227.75
852.23	227.80
852.55	227.81
852.86	227.82
853.17	227.83
853.49	227.87
853.80	227.91
854.11	227.91
854.42	227.93
854.74	227.90
855.05	227.92
855.36	227.82
855.67	227.81
855.99	227.81
856.30	228.02
856.61	228.01
856.92	228.03
857.23	228.04
857.55	228.00
857.86	227.99
858.17	228.02
858.48	227.98
858.79	227.93
859.11	227.95
859.42	227.92
859.73	227.89
860.04	227.88
860.35	227.82
860.66	227.76
860.98	227.75
861.29	227.79
861.60	227.77
861.91	227.81
862.22	227.78
862.53	227.75
862.84	227.54
863.16	227.59
863.47	227.56
863.78	227.54
864.09	227.56
864.40	227.58
864.71	227.58
865.02	227.61
865.33	227.60
865.64	227.57
865.95	227.57
866.27	227.69
866.58	227.67
866.89	227.70
867.20	227.70
867.51	227.68
867.82	227.65
868.13	227.70
868.44	227.67
868.75	227.69
869.06	227.70
869.37	227.72
869.68	227.67
869.99	227.70
870.30	227.71
870.61	227.73
870.92	227.71
871.23	227.68
871.54	227.70
871.85	227.73
872.16	227.75
872.47	227.74
872.78	227.64
873.09	227.65
873.40	227.62
873.71	227.65
874.02	227.65
874.33	227.64
874.64	227.60
874.95	227.63
875.26	227.59
875.56	227.60
875.87	227.58
876.18	227.56
876.49	227.74
876.80	227.71
877.11	227.67
877.42	227.68
877.73	227.69
878.04	227.65
878.35	227.64
878.66	227.64
878.96	227.64
879.27	227.63
879.58	227.61
879.89	227.60
880.20	227.62
880.51	227.62
880.82	227.62
881.12	227.63
881.43	227.60
881.74	227.58
882.05	227.57
882.36	227.58
882.67	227.60
882.97	227.40
883.28	227.38
883.59	227.38
883.90	227.38
884.21	227.42
884.51	227.42
884.82	227.39
885.13	227.39
885.44	227.38
885.74	227.38
886.05	227.38
886.36	227.39
886.67	227.33
886.98	227.42
887.28	227.44
887.59	227.44
887.90	227.45
888.20	227.44
888.51	227.48
888.82	227.46
889.13	227.46
889.43	227.62
889.74	227.61
890.05	227.62
890.35	227.60
890.66	227.56
890.97	227.54
891.28	227.53
891.58	227.53
891.89	227.54
892.20	227.52
892.50	227.49
892.81	227.48
893.12	227.48
893.42	227.37
893.73	227.37
894.04	227.38
894.34	227.38
894.65	227.39
894.95	227.37
895.26	227.38
895.57	227.46
895.87	227.28
896.18	227.31
896.48	227.31
896.79	227.32
897.10	227.36
897.40	227.37
897.71	227.38
898.01	227.36
898.32	227.38
898.63	227.38
898.93	227.40
899.24	227.40
899.54	227.38
899.85	227.38
900.15	227.38
900.46	227.37
900.76	227.38
901.07	227.37
901.38	227.35
901.68	227.37
901.99	227.26
902.29	227.28
902.60	227.27
902.90	227.25
903.21	227.24
903.51	227.22
903.82	227.25
904.12	227.25
904.43	227.26
904.73	227.23
905.03	227.25
905.34	227.42
905.64	227.41
905.95	227.42
906.25	227.42
906.56	227.40
906.86	227.40
907.17	227.37
907.47	227.39
907.77	227.37
908.08	227.34
908.38	227.35
908.69	227.36
908.99	227.39
909.30	227.40
909.60	227.39
909.90	227.38
910.21	227.34
910.51	227.30
910.81	227.31
911.12	227.33
911.42	227.34
911.73	227.15
912.03	227.16
912.33	227.20
912.64	227.19
912.94	227.17
913.24	227.15
913.55	227.14
913.85	227.12
914.15	227.17
914.46	227.19
914.76	227.17
915.06	227.14
915.37	227.11
915.67	227.10
915.97	227.10
916.27	227.09
916.58	227.10
916.88	227.09
917.18	227.07
917.49	227.18
917.79	227.16
918.09	227.19
918.39	227.24
918.70	227.23
919.00	227.24
919.30	227.33
919.60	227.32
919.91	227.31
920.21	227.32
920.51	227.27
920.81	227.26
921.12	227.30
921.42	227.29
921.72	227.30
922.02	227.30
922.32	227.32
922.63	227.32
922.93	227.41
923.23	227.43
923.53	227.43
923.83	227.30
924.13	227.33
924.44	227.32
924.74	227.33
925.04	227.38
925.34	227.37
925.64	227.29
925.94	227.28
926.24	227.40
926.55	227.37
926.85	227.41
927.15	227.42
927.45	227.41
927.75	227.42
928.05	227.44
928.35	227.44
928.65	227.46
928.95	227.48
929.26	227.40
929.56	227.44
929.86	227.46
930.16	227.44
930.46	227.42
930.76	227.43
931.06	227.35
931.36	227.29
931.66	227.33
931.96	227.36
932.26	227.37
932.56	227.29
932.86	227.30
933.16	227.28
933.46	227.25
933.76	227.23
934.06	227.26
934.36	227.30
934.66	227.29
934.96	227.26
935.26	227.27
935.56	227.30
935.86	227.24
936.16	227.21
936.46	227.21
936.76	227.21
937.06	227.18
937.36	227.19
937.66	227.19
937.96	227.18
938.26	227.13
938.56	227.13
938.86	227.14
939.16	227.19
939.46	227.21
939.76	227.23
940.06	227.23
940.35	227.20
940.65	227.11
940.95	227.12
941.25	227.08
941.55	227.06
941.85	227.04
942.15	227.09
942.45	227.14
942.75	227.13
943.04	227.14
943.34	227.17
943.64	227.15
943.94	227.13
944.24	227.12
944.54	227.14
944.84	227.13
945.13	227.10
945.43	227.06
945.73	227.05
946.03	227.02
946.33	227.00
946.62	226.98
946.92	226.98
947.22	226.99
947.52	226.99
947.82	227.02
948.11	227.00
948.41	226.96
948.71	226.91
949.01	226.91
949.31	226.88
949.60	226.87
949.90	226.90
950.20	226.89
950.50	226.89
950.79	226.87
951.09	226.89
951.39	226.89
951.69	226.88
951.98	226.91
952.28	226.93
952.58	226.93
952.87	226.94
953.17	226.97
953.47	226.95
953.76	226.95
954.06	226.92
954.36	226.89
954.66	226.89
954.95	226.94
955.25	226.97
955.55	226.99
955.84	226.96
956.14	226.97
956.44	226.99
956.73	226.97
957.03	226.99
957.32	226.98
957.62	226.98
957.92	227.01
958.21	226.99
958.51	227.19
958.81	227.22
959.10	227.24
959.40	227.27
959.69	227.29
959.99	227.31
960.29	227.31
960.58	227.31
960.88	227.38
961.17	227.36
961.47	227.37
961.76	227.35
962.06	227.39
962.36	227.37
962.65	227.39
962.95	227.40
963.24	227.38
963.54	227.39
963.83	227.42
964.13	227.40
964.42	227.39
964.72	227.24
965.01	227.24
965.31	227.22
965.60	227.18
965.90	227.30
966.19	227.27
966.49	227.28
966.78	227.28
967.08	227.27
967.37	227.26
967.67	227.22
967.96	227.26
968.26	227.24
968.55	227.28
968.85	227.26
969.14	227.26
969.43	227.26
969.73	227.24
970.02	227.23
970.32	227.22
970.61	227.19
970.91	227.14
971.20	227.11
971.49	227.11
971.79	227.13
972.08	227.00
972.38	227.02
972.67	227.01
972.96	227.03
973.26	227.00
973.55	227.06
973.85	227.06
974.14	227.03
974.43	227.04
974.73	227.00
975.02	226.99
975.31	226.99
975.61	227.00
975.90	226.98
976.19	226.95
976.49	226.97
976.78	226.99
977.07	226.98
977.37	227.01
977.66	227.02
977.95	227.00
978.24	227.02
978.54	227.05
978.83	227.05
979.12	227.04
979.42	227.05
979.71	227.00
980.00	227.00
980.29	227.02
980.59	226.99
980.88	227.04
981.17	227.04
981.46	227.04
981.76	227.04
982.05	227.10
982.34	227.13
982.63	227.12
982.93	227.13
983.22	227.18
983.51	227.18
983.80	227.21
984.09	227.23
984.39	227.21
984.68	227.19
984.97	227.20
985.26	227.18
985.55	227.20
985.85	227.16
986.14	227.19
986.43	227.20
986.72	227.18
987.01	227.12
987.30	227.12
987.59	227.12
987.89	227.13
988.18	227.07
988.47	227.06
988.76	227.05
989.05	227.03
989.34	227.00
989.63	227.04
989.92	227.01
990.22	226.98
990.51	226.98
990.80	226.96
991.09	226.97
991.38	226.99
991.67	226.98
991.96	226.96
992.25	226.95
992.54	226.92
992.83	226.94
993.12	226.94
993.41	226.98
993.70	227.04
993.99	227.08
994.28	227.11
994.58	227.14
994.87	227.12
995.16	227.12
995.45	227.10
995.74	227.03
996.03	227.06
996.32	227.07
996.61	227.11
996.90	227.11
997.19	227.10
997.48	227.10
997.77	227.09
998.06	227.11
998.34	227.10
998.63	227.10
998.92	227.11
999.21	227.14
999.50	227.13
999.79	227.06
1000.08	227.05
1000.37	227.05
1000.66	227.01
1000.95	227.05
1001.24	227.06
1001.53	227.08
1001.82	227.08
1002.11	227.04
1002.40	227.06
1002.68	227.11
1002.97	227.23
1003.26	227.21
1003.55	227.18
1003.84	227.19
1004.13	227.25
1004.42	227.23
1004.71	227.24
1004.99	227.22
1005.28	227.25
1005.57	227.24
1005.86	227.23
1006.15	227.21
1006.44	227.17
1006.72	227.20
1007.01	227.18
1007.30	227.18
1007.59	227.17
1007.88	227.18
1008.17	227.18
1008.45	227.15
1008.74	227.08
1009.03	227.00
1009.32	227.01
1009.60	227.02
1009.89	227.00
1010.18	226.92
1010.47	226.92
1010.76	226.91
1011.04	226.91
1011.33	226.91
1011.62	226.93
1011.91	226.93
1012.19	226.95
1012.48	226.96
1012.77	226.96
1013.05	227.01
1013.34	227.00
1013.63	226.99
1013.92	227.00
1014.20	227.00
1014.49	226.99
1014.78	227.00
1015.06	226.94
1015.35	226.93
1015.64	226.96
1015.92	226.99
1016.21	227.01
1016.50	227.02
1016.78	227.04
1017.07	227.06
1017.36	227.01
1017.64	226.99
1017.93	227.01
1018.22	226.99
1018.50	226.98
1018.79	226.97
1019.08	226.91
1019.36	226.93
1019.65	226.91
1019.93	226.95
1020.22	226.98
1020.51	227.09
1020.79	227.08
1021.08	226.68
1021.36	226.69
1021.65	226.99
1021.94	226.89
1022.22	227.07
1022.51	226.70
1022.79	227.72
1023.08	227.41
1023.36	229.12
1023.65	226.77
>>>>>End Processed Spectral Data<<<<<
