SpectraSuite Data File
++++++++++++++++++++++++++++++++++++
Date: Tue Oct 06 15:10:00 EDT 2015
User: lab3
Dark Spectrum Present: No
Reference Spectrum Present: No
Number of Sampled Component Spectra: 1
Spectrometers: USB2E7196
Integration Time (usec): 66000 (USB2E7196)
Spectra Averaged: 400 (USB2E7196)
Boxcar Smoothing: 10 (USB2E7196)
Correct for Electrical Dark: No (USB2E7196)
Strobe/Lamp Enabled: No (USB2E7196)
Correct for Detector Non-linearity: No (USB2E7196)
Correct for Stray Light: No (USB2E7196)
Number of Pixels in Processed Spectrum: 2048
>>>>>Begin Processed Spectral Data<<<<<
339.09	0.00
339.48	215.24
339.86	216.49
340.24	217.79
340.63	219.23
341.01	223.38
341.39	222.16
341.78	223.58
342.16	224.67
342.54	225.17
342.93	213.55
343.31	224.33
343.69	224.85
344.07	225.32
344.46	225.77
344.84	226.18
345.22	226.38
345.60	226.65
345.99	226.84
346.37	226.98
346.75	227.09
347.13	227.17
347.52	227.26
347.90	227.38
348.28	227.42
348.66	227.52
349.05	227.49
349.43	227.56
349.81	227.64
350.19	227.72
350.57	227.81
350.96	227.90
351.34	228.01
351.72	228.12
352.10	228.23
352.48	228.31
352.87	228.35
353.25	228.40
353.63	228.45
354.01	228.52
354.39	228.60
354.77	228.68
355.15	228.80
355.54	228.84
355.92	228.83
356.30	228.92
356.68	229.09
357.06	229.19
357.44	229.23
357.82	229.27
358.20	229.49
358.58	229.55
358.97	229.62
359.35	229.73
359.73	229.83
360.11	229.90
360.49	229.96
360.87	230.00
361.25	230.08
361.63	230.17
362.01	230.24
362.39	230.28
362.77	230.32
363.15	230.36
363.53	230.39
363.91	230.42
364.29	230.45
364.67	230.32
365.05	230.34
365.43	230.38
365.81	230.42
366.19	230.35
366.57	230.44
366.95	230.44
367.33	230.39
367.71	230.38
368.09	230.41
368.47	230.40
368.85	230.41
369.23	230.44
369.61	230.37
369.99	230.41
370.37	230.42
370.75	230.56
371.13	230.51
371.51	230.46
371.89	230.47
372.27	230.45
372.65	230.42
373.03	230.37
373.41	230.32
373.78	230.27
374.16	230.15
374.54	230.06
374.92	230.00
375.30	229.96
375.68	229.89
376.06	229.85
376.44	229.81
376.82	229.76
377.19	229.72
377.57	229.67
377.95	229.56
378.33	229.50
378.71	229.30
379.09	229.25
379.47	229.23
379.84	229.17
380.22	229.10
380.60	229.03
380.98	229.00
381.36	228.95
381.73	228.88
382.11	228.87
382.49	228.83
382.87	228.76
383.25	228.70
383.62	228.87
384.00	228.80
384.38	228.77
384.76	228.77
385.13	228.79
385.51	228.77
385.89	228.73
386.27	228.69
386.64	228.68
387.02	228.63
387.40	228.59
387.78	228.55
388.15	228.55
388.53	228.51
388.91	228.48
389.29	228.45
389.66	228.47
390.04	228.41
390.42	228.43
390.79	228.44
391.17	228.44
391.55	228.23
391.92	228.22
392.30	228.21
392.68	228.17
393.05	228.15
393.43	228.15
393.81	228.13
394.18	228.13
394.56	228.15
394.94	228.21
395.31	228.21
395.69	228.28
396.06	228.31
396.44	228.35
396.82	228.37
397.19	228.49
397.57	228.51
397.95	228.60
398.32	228.59
398.70	228.67
399.07	228.77
399.45	228.82
399.82	228.89
400.20	228.96
400.58	229.04
400.95	229.07
401.33	229.19
401.70	229.45
402.08	229.60
402.45	229.72
402.83	229.89
403.20	230.06
403.58	230.21
403.95	230.40
404.33	230.61
404.71	230.83
405.08	231.14
405.46	231.38
405.83	231.64
406.21	231.94
406.58	232.26
406.96	232.58
407.33	232.99
407.70	233.40
408.08	233.96
408.45	234.47
408.83	235.01
409.20	235.51
409.58	235.95
409.95	236.57
410.33	237.25
410.70	237.89
411.08	238.63
411.45	239.43
411.82	240.27
412.20	241.21
412.57	242.30
412.95	243.18
413.32	244.31
413.69	245.50
414.07	246.75
414.44	248.10
414.82	249.50
415.19	251.13
415.56	252.82
415.94	254.58
416.31	256.53
416.68	258.48
417.06	260.75
417.43	262.88
417.81	265.30
418.18	267.80
418.55	270.53
418.93	273.37
419.30	276.34
419.67	279.47
420.04	282.69
420.42	286.07
420.79	289.96
421.16	293.90
421.54	297.87
421.91	302.05
422.28	306.39
422.66	311.04
423.03	315.48
423.40	320.12
423.77	325.07
424.15	330.17
424.52	335.45
424.89	341.16
425.26	346.83
425.64	352.10
426.01	358.04
426.38	364.08
426.75	370.30
427.13	376.66
427.50	383.33
427.87	390.27
428.24	397.22
428.61	403.93
428.99	411.12
429.36	419.05
429.73	426.60
430.10	434.11
430.47	441.81
430.85	449.74
431.22	458.23
431.59	466.94
431.96	475.39
432.33	484.83
432.70	493.82
433.08	504.47
433.45	514.46
433.82	524.26
434.19	535.28
434.56	546.13
434.93	556.67
435.30	567.16
435.68	579.01
436.05	590.63
436.42	602.23
436.79	612.90
437.16	624.39
437.53	636.76
437.90	649.11
438.27	661.24
438.64	674.32
439.01	686.16
439.38	697.12
439.75	707.70
440.13	719.74
440.50	731.21
440.87	740.35
441.24	750.43
441.61	761.54
441.98	769.70
442.35	779.38
442.72	789.29
443.09	798.62
443.46	804.77
443.83	809.42
444.20	813.29
444.57	818.92
444.94	822.32
445.31	825.76
445.68	828.73
446.05	830.96
446.42	830.75
446.79	830.32
447.16	829.96
447.53	829.64
447.90	826.15
448.27	822.74
448.64	817.40
449.01	813.74
449.37	806.08
449.74	799.20
450.11	790.32
450.48	780.52
450.85	770.71
451.22	762.27
451.59	753.99
451.96	746.51
452.33	735.55
452.70	725.84
453.07	714.05
453.43	702.35
453.80	690.93
454.17	679.96
454.54	669.73
454.91	658.22
455.28	647.39
455.65	637.15
456.02	626.37
456.38	617.69
456.75	606.58
457.12	597.64
457.49	588.59
457.86	580.00
458.23	572.43
458.59	564.14
458.96	555.57
459.33	548.03
459.70	540.37
460.07	534.53
460.43	527.61
460.80	521.17
461.17	515.52
461.54	509.44
461.91	503.77
462.27	498.05
462.64	493.31
463.01	487.91
463.38	482.49
463.74	477.60
464.11	473.28
464.48	469.38
464.85	465.15
465.21	461.90
465.58	458.29
465.95	454.19
466.32	450.92
466.68	447.73
467.05	444.51
467.42	441.39
467.78	438.03
468.15	434.95
468.52	432.70
468.88	429.71
469.25	426.99
469.62	424.78
469.98	422.44
470.35	420.36
470.72	418.47
471.08	416.55
471.45	414.91
471.82	413.06
472.18	411.14
472.55	409.89
472.92	408.34
473.28	407.15
473.65	405.86
474.02	404.64
474.38	403.60
474.75	403.01
475.11	402.16
475.48	401.74
475.85	401.30
476.21	401.03
476.58	400.83
476.94	401.00
477.31	401.06
477.67	401.13
478.04	401.39
478.41	401.83
478.77	402.43
479.14	402.81
479.50	403.61
479.87	404.61
480.23	405.59
480.60	406.53
480.96	407.49
481.33	408.92
481.69	410.35
482.06	411.76
482.42	413.01
482.79	414.62
483.15	416.47
483.52	418.59
483.88	420.61
484.25	422.75
484.61	424.99
484.98	427.41
485.34	430.14
485.71	432.99
486.07	436.02
486.44	439.03
486.80	442.43
487.17	445.90
487.53	449.67
487.90	453.60
488.26	457.94
488.62	462.45
488.99	466.97
489.35	471.70
489.72	476.79
490.08	482.22
490.44	487.71
490.81	493.45
491.17	499.33
491.54	505.60
491.90	512.04
492.26	518.88
492.63	526.01
492.99	533.51
493.36	541.16
493.72	549.22
494.08	557.44
494.45	566.04
494.81	575.05
495.17	584.28
495.54	594.04
495.90	604.19
496.26	614.57
496.63	625.21
496.99	636.21
497.35	647.73
497.72	659.53
498.08	671.66
498.44	684.13
498.80	697.29
499.17	710.81
499.53	724.73
499.89	739.08
500.26	753.59
500.62	768.45
500.98	784.15
501.34	799.95
501.71	816.45
502.07	833.24
502.43	850.45
502.79	867.86
503.16	885.79
503.52	903.91
503.88	922.44
504.24	941.44
504.60	960.68
504.97	980.44
505.33	1000.68
505.69	1021.96
506.05	1043.28
506.41	1064.59
506.78	1086.00
507.14	1108.04
507.50	1130.57
507.86	1153.53
508.22	1176.56
508.59	1199.32
508.95	1223.11
509.31	1247.40
509.67	1272.32
510.03	1297.19
510.39	1322.01
510.75	1346.88
511.12	1372.03
511.48	1397.35
511.84	1422.56
512.20	1447.95
512.56	1474.35
512.92	1500.63
513.28	1526.26
513.64	1552.42
514.00	1578.70
514.37	1605.29
514.73	1631.92
515.09	1657.72
515.45	1683.77
515.81	1710.02
516.17	1735.97
516.53	1761.20
516.89	1786.33
517.25	1811.63
517.61	1836.81
517.97	1862.45
518.33	1887.40
518.69	1912.32
519.05	1937.47
519.41	1962.76
519.77	1988.06
520.13	2012.02
520.49	2036.04
520.85	2060.36
521.21	2084.03
521.57	2107.97
521.93	2130.89
522.29	2154.48
522.65	2177.79
523.01	2200.88
523.37	2223.38
523.73	2246.58
524.09	2269.30
524.45	2291.66
524.81	2313.39
525.17	2334.70
525.53	2355.44
525.89	2376.75
526.25	2397.47
526.61	2416.80
526.97	2436.06
527.33	2455.28
527.68	2473.96
528.04	2492.01
528.40	2508.89
528.76	2526.05
529.12	2542.75
529.48	2559.93
529.84	2574.60
530.20	2589.77
530.56	2603.89
530.91	2618.09
531.27	2631.64
531.63	2644.56
531.99	2657.00
532.35	2669.06
532.71	2680.70
533.07	2692.61
533.42	2702.58
533.78	2712.85
534.14	2723.99
534.50	2734.06
534.86	2744.63
535.21	2753.13
535.57	2761.56
535.93	2769.92
536.29	2776.78
536.65	2783.34
537.00	2788.25
537.36	2794.11
537.72	2799.06
538.08	2803.57
538.44	2806.81
538.79	2810.17
539.15	2812.23
539.51	2813.92
539.87	2814.63
540.22	2813.55
540.58	2812.61
540.94	2812.42
541.29	2811.30
541.65	2808.52
542.01	2805.49
542.37	2800.85
542.72	2798.00
543.08	2793.56
543.44	2789.29
543.79	2783.98
544.15	2778.23
544.51	2773.00
544.87	2766.63
545.22	2759.42
545.58	2752.07
545.94	2745.19
546.29	2736.78
546.65	2728.43
547.01	2719.89
547.36	2711.67
547.72	2703.87
548.07	2694.50
548.43	2684.20
548.79	2673.36
549.14	2663.13
549.50	2653.11
549.86	2642.21
550.21	2629.64
550.57	2618.03
550.92	2604.61
551.28	2591.99
551.64	2579.58
551.99	2566.88
552.35	2553.91
552.70	2540.87
553.06	2528.33
553.41	2515.35
553.77	2501.89
554.13	2488.64
554.48	2474.44
554.84	2459.46
555.19	2445.29
555.55	2430.91
555.90	2416.69
556.26	2403.07
556.61	2388.40
556.97	2372.52
557.32	2357.11
557.68	2341.94
558.03	2326.71
558.39	2312.30
558.74	2298.39
559.10	2282.81
559.45	2267.51
559.81	2252.98
560.16	2238.10
560.52	2222.99
560.87	2208.05
561.23	2192.83
561.58	2177.97
561.94	2162.85
562.29	2147.46
562.64	2131.93
563.00	2116.68
563.35	2101.78
563.71	2086.39
564.06	2071.16
564.42	2056.42
564.77	2041.73
565.12	2027.05
565.48	2012.23
565.83	1997.65
566.19	1983.08
566.54	1968.82
566.89	1953.77
567.25	1938.40
567.60	1923.93
567.96	1908.85
568.31	1892.51
568.66	1877.06
569.02	1862.22
569.37	1847.91
569.72	1834.02
570.08	1819.87
570.43	1805.14
570.78	1790.17
571.14	1775.10
571.49	1760.10
571.84	1745.69
572.20	1730.13
572.55	1715.21
572.90	1700.16
573.26	1685.14
573.61	1669.48
573.96	1654.27
574.31	1639.24
574.67	1624.26
575.02	1608.93
575.37	1593.59
575.72	1578.88
576.08	1564.26
576.43	1549.02
576.78	1533.92
577.13	1518.96
577.49	1504.23
577.84	1489.95
578.19	1475.23
578.54	1460.42
578.90	1445.72
579.25	1430.86
579.60	1417.08
579.95	1403.05
580.30	1389.12
580.66	1374.91
581.01	1361.00
581.36	1347.17
581.71	1333.79
582.06	1320.38
582.42	1306.82
582.77	1293.78
583.12	1281.07
583.47	1268.10
583.82	1255.50
584.17	1242.46
584.53	1229.54
584.88	1216.85
585.23	1204.03
585.58	1191.59
585.93	1179.26
586.28	1167.67
586.63	1155.88
586.98	1143.91
587.34	1132.29
587.69	1120.39
588.04	1109.00
588.39	1097.75
588.74	1086.18
589.09	1074.84
589.44	1063.19
589.79	1052.12
590.14	1041.04
590.49	1030.05
590.84	1019.42
591.19	1008.76
591.54	998.31
591.89	987.50
592.25	977.06
592.60	966.56
592.95	956.26
593.30	946.15
593.65	935.78
594.00	925.78
594.35	916.50
594.70	906.66
595.05	897.49
595.40	888.06
595.75	878.49
596.10	869.42
596.45	860.38
596.80	851.70
597.15	842.99
597.50	834.37
597.85	826.00
598.19	817.52
598.54	809.06
598.89	800.98
599.24	793.37
599.59	785.56
599.94	778.31
600.29	771.01
600.64	763.70
600.99	756.28
601.34	749.01
601.69	741.29
602.04	734.35
602.39	727.26
602.74	720.39
603.08	713.67
603.43	706.94
603.78	700.20
604.13	693.59
604.48	687.03
604.83	680.65
605.18	674.32
605.53	668.17
605.87	662.05
606.22	656.00
606.57	649.86
606.92	643.66
607.27	637.48
607.62	631.56
607.96	625.79
608.31	620.46
608.66	614.98
609.01	609.80
609.36	604.59
609.70	599.34
610.05	594.10
610.40	589.04
610.75	584.01
611.10	579.19
611.44	574.32
611.79	569.60
612.14	564.79
612.49	560.04
612.83	555.51
613.18	551.07
613.53	546.66
613.88	542.35
614.22	538.33
614.57	534.22
614.92	530.16
615.27	526.27
615.61	522.33
615.96	518.45
616.31	514.56
616.65	510.77
617.00	507.13
617.35	503.52
617.70	499.93
618.04	496.42
618.39	492.98
618.74	489.77
619.08	486.55
619.43	483.43
619.78	480.20
620.12	477.04
620.47	474.02
620.82	471.09
621.16	468.16
621.51	465.34
621.85	462.54
622.20	459.81
622.55	457.06
622.89	454.32
623.24	451.77
623.59	449.19
623.93	446.72
624.28	444.36
624.62	442.20
624.97	440.05
625.32	437.81
625.66	435.55
626.01	433.25
626.35	431.05
626.70	428.80
627.04	426.84
627.39	424.77
627.73	422.79
628.08	420.85
628.43	418.95
628.77	416.91
629.12	415.05
629.46	413.23
629.81	411.51
630.15	409.74
630.50	407.96
630.84	406.27
631.19	404.62
631.53	403.03
631.88	401.26
632.22	399.56
632.57	398.14
632.91	396.70
633.26	395.33
633.60	393.98
633.95	392.70
634.29	391.27
634.64	389.92
634.98	388.43
635.32	387.08
635.67	385.87
636.01	384.68
636.36	383.49
636.70	382.42
637.05	381.18
637.39	380.10
637.73	379.02
638.08	378.00
638.42	376.98
638.77	375.82
639.11	374.68
639.45	373.57
639.80	372.40
640.14	371.32
640.49	370.22
640.83	369.09
641.17	368.01
641.52	366.95
641.86	365.92
642.20	365.07
642.55	364.05
642.89	363.05
643.23	362.09
643.58	361.26
643.92	360.23
644.26	359.33
644.61	358.45
644.95	357.55
645.29	356.54
645.64	355.54
645.98	354.65
646.32	353.84
646.66	353.01
647.01	352.18
647.35	351.42
647.69	350.63
648.04	349.93
648.38	349.16
648.72	348.44
649.06	347.69
649.41	346.89
649.75	346.13
650.09	345.43
650.43	344.70
650.78	343.91
651.12	343.19
651.46	342.47
651.80	341.74
652.14	341.04
652.49	340.46
652.83	339.80
653.17	339.11
653.51	338.44
653.85	337.85
654.20	337.22
654.54	336.48
654.88	335.81
655.22	335.16
655.56	334.46
655.90	333.82
656.25	333.18
656.59	332.57
656.93	332.00
657.27	331.45
657.61	330.85
657.95	330.29
658.29	329.72
658.64	329.17
658.98	328.58
659.32	327.99
659.66	327.43
660.00	326.93
660.34	326.42
660.68	325.85
661.02	325.22
661.36	324.62
661.70	324.10
662.05	323.56
662.39	323.05
662.73	322.59
663.07	322.17
663.41	321.70
663.75	321.18
664.09	320.68
664.43	320.05
664.77	319.53
665.11	318.94
665.45	318.42
665.79	317.93
666.13	317.39
666.47	316.86
666.81	316.26
667.15	315.66
667.49	315.18
667.83	314.77
668.17	314.29
668.51	313.88
668.85	313.48
669.19	313.11
669.53	312.59
669.87	312.07
670.21	311.53
670.55	311.02
670.89	310.62
671.23	310.20
671.57	309.81
671.91	309.43
672.25	309.09
672.58	308.76
672.92	308.33
673.26	307.95
673.60	307.57
673.94	307.22
674.28	306.86
674.62	306.45
674.96	305.99
675.30	305.60
675.64	305.14
675.97	304.67
676.31	304.17
676.65	303.71
676.99	303.38
677.33	302.95
677.67	302.57
678.01	302.05
678.34	301.61
678.68	301.19
679.02	300.74
679.36	300.28
679.70	299.79
680.04	299.35
680.37	298.94
680.71	298.55
681.05	298.17
681.39	297.73
681.73	297.27
682.06	296.84
682.40	296.43
682.74	296.07
683.08	295.76
683.42	295.37
683.75	295.03
684.09	294.55
684.43	294.13
684.77	293.69
685.10	293.30
685.44	292.89
685.78	292.49
686.12	292.09
686.45	291.69
686.79	291.27
687.13	290.88
687.46	290.43
687.80	289.99
688.14	289.51
688.48	289.10
688.81	288.68
689.15	288.30
689.49	287.87
689.82	287.42
690.16	286.88
690.50	286.43
690.83	285.98
691.17	285.52
691.51	285.08
691.84	284.72
692.18	284.30
692.52	283.85
692.85	283.42
693.19	283.04
693.52	282.60
693.86	282.17
694.20	281.73
694.53	281.32
694.87	280.90
695.21	280.47
695.54	280.04
695.88	279.59
696.21	279.11
696.55	278.67
696.88	278.25
697.22	277.82
697.56	277.43
697.89	276.99
698.23	276.59
698.56	276.17
698.90	275.75
699.23	275.29
699.57	274.90
699.90	274.47
700.24	274.00
700.58	273.61
700.91	273.26
701.25	273.03
701.58	272.73
701.92	272.39
702.25	272.02
702.59	271.66
702.92	271.29
703.26	270.89
703.59	270.52
703.93	270.28
704.26	269.92
704.60	269.54
704.93	269.16
705.26	268.78
705.60	268.46
705.93	268.05
706.27	267.77
706.60	267.45
706.94	267.18
707.27	266.80
707.61	266.44
707.94	266.03
708.27	265.51
708.61	265.05
708.94	264.65
709.28	264.29
709.61	263.91
709.94	263.59
710.28	263.26
710.61	262.96
710.95	262.46
711.28	262.26
711.61	261.90
711.95	261.62
712.28	261.29
712.61	260.94
712.95	260.72
713.28	260.46
713.61	260.10
713.95	259.72
714.28	259.44
714.61	259.11
714.95	258.81
715.28	258.49
715.61	258.22
715.95	257.95
716.28	257.65
716.61	257.39
716.95	257.09
717.28	256.81
717.61	256.51
717.94	256.27
718.28	255.87
718.61	255.61
718.94	255.31
719.27	255.05
719.61	254.80
719.94	254.50
720.27	254.14
720.60	253.89
720.94	253.62
721.27	253.36
721.60	253.14
721.93	252.90
722.27	252.71
722.60	252.47
722.93	252.20
723.26	251.97
723.59	251.72
723.93	251.51
724.26	251.28
724.59	251.05
724.92	250.82
725.25	250.66
725.59	250.43
725.92	250.24
726.25	250.04
726.58	249.84
726.91	249.62
727.24	249.43
727.57	249.22
727.91	249.00
728.24	248.83
728.57	248.62
728.90	248.45
729.23	248.18
729.56	248.07
729.89	247.88
730.22	247.65
730.55	247.45
730.89	247.25
731.22	247.04
731.55	246.85
731.88	246.69
732.21	246.47
732.54	246.27
732.87	246.08
733.20	245.90
733.53	245.72
733.86	245.55
734.19	245.34
734.52	245.21
734.85	245.19
735.18	244.98
735.51	244.85
735.84	244.69
736.17	244.59
736.50	244.33
736.83	244.38
737.16	244.23
737.49	244.07
737.82	243.89
738.15	243.76
738.48	243.60
738.81	243.42
739.14	243.24
739.47	243.09
739.80	242.93
740.13	242.78
740.46	242.59
740.79	242.41
741.12	242.27
741.45	242.06
741.78	241.79
742.11	241.68
742.44	241.48
742.77	241.35
743.10	241.17
743.43	241.02
743.75	240.68
744.08	240.82
744.41	240.68
744.74	240.54
745.07	240.37
745.40	240.29
745.73	240.22
746.06	240.11
746.39	240.01
746.71	239.88
747.04	239.73
747.37	239.60
747.70	239.51
748.03	239.40
748.36	239.32
748.68	239.20
749.01	239.04
749.34	238.94
749.67	238.80
750.00	238.72
750.33	238.74
750.65	238.64
750.98	238.28
751.31	238.19
751.64	238.11
751.97	238.10
752.29	237.96
752.62	237.79
752.95	237.67
753.28	237.53
753.60	237.41
753.93	237.33
754.26	237.25
754.59	237.09
754.91	236.94
755.24	236.82
755.57	236.71
755.90	236.61
756.22	236.49
756.55	236.37
756.88	236.23
757.20	236.02
757.53	235.89
757.86	235.76
758.19	235.66
758.51	235.54
758.84	235.34
759.17	235.23
759.49	235.15
759.82	235.16
760.15	235.10
760.47	235.03
760.80	234.90
761.13	234.85
761.45	234.79
761.78	234.71
762.11	234.63
762.43	234.53
762.76	234.46
763.08	234.42
763.41	234.35
763.74	234.30
764.06	234.20
764.39	234.12
764.71	234.05
765.04	233.95
765.37	233.88
765.69	233.81
766.02	233.73
766.34	233.64
766.67	233.47
767.00	233.44
767.32	233.46
767.65	233.53
767.97	233.44
768.30	233.37
768.62	233.31
768.95	233.23
769.27	233.17
769.60	233.12
769.92	233.01
770.25	232.93
770.57	232.83
770.90	232.78
771.22	232.73
771.55	232.68
771.87	232.65
772.20	232.59
772.52	232.71
772.85	232.88
773.17	232.84
773.50	232.79
773.82	232.68
774.15	232.55
774.47	232.37
774.80	232.29
775.12	232.24
775.45	232.18
775.77	232.16
776.09	232.13
776.42	232.07
776.74	232.08
777.07	232.02
777.39	232.01
777.72	231.95
778.04	231.93
778.36	231.87
778.69	231.84
779.01	231.82
779.33	231.63
779.66	231.38
779.98	231.31
780.31	231.30
780.63	231.34
780.95	231.32
781.28	231.29
781.60	231.24
781.92	231.21
782.25	231.18
782.57	231.14
782.89	231.11
783.22	231.05
783.54	230.99
783.86	230.98
784.19	230.93
784.51	230.96
784.83	230.91
785.16	230.90
785.48	230.85
785.80	230.82
786.12	230.79
786.45	230.78
786.77	230.78
787.09	230.74
787.42	230.64
787.74	230.61
788.06	230.58
788.38	230.55
788.71	230.52
789.03	230.49
789.35	230.50
789.67	230.44
789.99	230.45
790.32	230.42
790.64	230.41
790.96	230.56
791.28	230.44
791.61	230.39
791.93	230.36
792.25	230.32
792.57	230.41
792.89	230.35
793.21	230.32
793.54	230.29
793.86	230.23
794.18	230.21
794.50	230.16
794.82	230.14
795.14	230.14
795.47	230.14
795.79	230.12
796.11	230.04
796.43	230.02
796.75	229.99
797.07	229.95
797.39	229.91
797.71	229.72
798.04	229.74
798.36	229.73
798.68	229.68
799.00	229.68
799.32	229.56
799.64	229.59
799.96	229.56
800.28	229.56
800.60	229.53
800.92	229.53
801.24	229.50
801.56	229.51
801.89	229.48
802.21	229.46
802.53	229.42
802.85	229.46
803.17	229.52
803.49	229.48
803.81	229.46
804.13	229.43
804.45	229.40
804.77	229.39
805.09	229.38
805.41	229.36
805.73	229.30
806.05	229.25
806.37	229.21
806.69	229.19
807.01	229.15
807.33	229.15
807.65	229.07
807.97	229.14
808.28	229.10
808.60	229.08
808.92	229.04
809.24	229.12
809.56	229.08
809.88	229.01
810.20	229.00
810.52	229.01
810.84	228.97
811.16	228.95
811.48	228.93
811.80	228.98
812.12	228.97
812.43	229.00
812.75	229.01
813.07	228.97
813.39	228.98
813.71	228.93
814.03	228.91
814.35	228.90
814.67	228.81
814.98	228.78
815.30	228.76
815.62	228.72
815.94	228.61
816.26	228.60
816.58	228.55
816.89	228.56
817.21	228.50
817.53	228.50
817.85	228.51
818.17	228.48
818.48	228.40
818.80	228.42
819.12	228.39
819.44	228.35
819.76	228.33
820.07	228.32
820.39	228.33
820.71	228.33
821.03	228.33
821.34	228.31
821.66	228.33
821.98	228.33
822.30	228.33
822.61	228.45
822.93	228.42
823.25	228.40
823.57	228.39
823.88	228.41
824.20	228.41
824.52	228.42
824.83	228.41
825.15	228.38
825.47	228.36
825.79	228.36
826.10	228.35
826.42	228.35
826.74	228.34
827.05	228.34
827.37	228.35
827.69	228.32
828.00	228.32
828.32	228.33
828.64	228.30
828.95	228.38
829.27	228.31
829.58	228.29
829.90	228.32
830.22	228.31
830.53	228.26
830.85	228.24
831.17	228.19
831.48	228.18
831.80	228.17
832.11	228.17
832.43	228.15
832.75	228.15
833.06	228.25
833.38	228.21
833.69	228.18
834.01	228.18
834.32	228.19
834.64	228.16
834.96	228.14
835.27	228.14
835.59	228.09
835.90	228.06
836.22	228.05
836.53	228.01
836.85	228.01
837.16	228.20
837.48	228.19
837.79	228.26
838.11	228.27
838.42	228.28
838.74	228.29
839.05	228.25
839.37	228.23
839.68	228.12
840.00	228.11
840.31	228.14
840.63	228.12
840.94	228.09
841.26	228.08
841.57	228.09
841.88	228.09
842.20	228.06
842.51	228.01
842.83	228.02
843.14	228.17
843.46	228.16
843.77	228.05
844.08	228.03
844.40	227.96
844.71	227.92
845.03	227.91
845.34	227.89
845.65	227.90
845.97	227.92
846.28	227.92
846.60	227.92
846.91	227.88
847.22	227.88
847.54	227.92
847.85	227.91
848.16	227.89
848.48	227.85
848.79	227.91
849.10	227.94
849.42	227.93
849.73	227.76
850.04	227.76
850.36	227.70
850.67	227.74
850.98	227.74
851.30	227.76
851.61	227.74
851.92	227.73
852.23	227.77
852.55	227.76
852.86	227.76
853.17	227.77
853.49	227.82
853.80	227.85
854.11	227.84
854.42	227.86
854.74	227.85
855.05	227.85
855.36	227.76
855.67	227.74
855.99	227.75
856.30	227.97
856.61	227.95
856.92	227.94
857.23	227.94
857.55	227.91
857.86	227.87
858.17	227.90
858.48	227.86
858.79	227.82
859.11	227.84
859.42	227.81
859.73	227.77
860.04	227.74
860.35	227.68
860.66	227.62
860.98	227.61
861.29	227.63
861.60	227.60
861.91	227.62
862.22	227.60
862.53	227.56
862.84	227.35
863.16	227.37
863.47	227.34
863.78	227.32
864.09	227.33
864.40	227.36
864.71	227.35
865.02	227.38
865.33	227.36
865.64	227.32
865.95	227.34
866.27	227.45
866.58	227.44
866.89	227.46
867.20	227.47
867.51	227.43
867.82	227.40
868.13	227.48
868.44	227.45
868.75	227.50
869.06	227.51
869.37	227.52
869.68	227.48
869.99	227.53
870.30	227.52
870.61	227.56
870.92	227.53
871.23	227.52
871.54	227.53
871.85	227.58
872.16	227.61
872.47	227.57
872.78	227.48
873.09	227.50
873.40	227.48
873.71	227.49
874.02	227.52
874.33	227.50
874.64	227.44
874.95	227.47
875.26	227.42
875.56	227.40
875.87	227.39
876.18	227.40
876.49	227.56
876.80	227.54
877.11	227.50
877.42	227.50
877.73	227.49
878.04	227.47
878.35	227.46
878.66	227.46
878.96	227.46
879.27	227.45
879.58	227.45
879.89	227.42
880.20	227.49
880.51	227.48
880.82	227.49
881.12	227.49
881.43	227.44
881.74	227.43
882.05	227.42
882.36	227.43
882.67	227.44
882.97	227.26
883.28	227.25
883.59	227.25
883.90	227.27
884.21	227.29
884.51	227.30
884.82	227.26
885.13	227.25
885.44	227.26
885.74	227.28
886.05	227.24
886.36	227.25
886.67	227.18
886.98	227.28
887.28	227.31
887.59	227.33
887.90	227.35
888.20	227.35
888.51	227.39
888.82	227.37
889.13	227.40
889.43	227.54
889.74	227.54
890.05	227.54
890.35	227.52
890.66	227.50
890.97	227.48
891.28	227.48
891.58	227.49
891.89	227.49
892.20	227.46
892.50	227.48
892.81	227.46
893.12	227.45
893.42	227.34
893.73	227.33
894.04	227.32
894.34	227.34
894.65	227.34
894.95	227.33
895.26	227.34
895.57	227.43
895.87	227.25
896.18	227.29
896.48	227.30
896.79	227.30
897.10	227.31
897.40	227.32
897.71	227.33
898.01	227.32
898.32	227.33
898.63	227.31
898.93	227.32
899.24	227.33
899.54	227.33
899.85	227.34
900.15	227.33
900.46	227.31
900.76	227.30
901.07	227.31
901.38	227.31
901.68	227.32
901.99	227.21
902.29	227.23
902.60	227.20
902.90	227.18
903.21	227.17
903.51	227.16
903.82	227.19
904.12	227.18
904.43	227.19
904.73	227.18
905.03	227.20
905.34	227.36
905.64	227.33
905.95	227.34
906.25	227.31
906.56	227.30
906.86	227.32
907.17	227.32
907.47	227.31
907.77	227.27
908.08	227.23
908.38	227.23
908.69	227.24
908.99	227.28
909.30	227.28
909.60	227.28
909.90	227.26
910.21	227.22
910.51	227.20
910.81	227.20
911.12	227.22
911.42	227.21
911.73	227.03
912.03	227.05
912.33	227.08
912.64	227.09
912.94	227.08
913.24	227.04
913.55	227.01
913.85	227.01
914.15	227.04
914.46	227.07
914.76	227.06
915.06	227.03
915.37	227.01
915.67	226.98
915.97	226.98
916.27	226.96
916.58	226.97
916.88	226.95
917.18	226.93
917.49	227.04
917.79	227.03
918.09	227.07
918.39	227.12
918.70	227.09
919.00	227.09
919.30	227.15
919.60	227.15
919.91	227.15
920.21	227.13
920.51	227.09
920.81	227.06
921.12	227.11
921.42	227.10
921.72	227.10
922.02	227.11
922.32	227.13
922.63	227.14
922.93	227.22
923.23	227.23
923.53	227.20
923.83	227.09
924.13	227.11
924.44	227.10
924.74	227.11
925.04	227.16
925.34	227.16
925.64	227.11
925.94	227.10
926.24	227.21
926.55	227.21
926.85	227.25
927.15	227.24
927.45	227.23
927.75	227.24
928.05	227.26
928.35	227.27
928.65	227.30
928.95	227.32
929.26	227.25
929.56	227.27
929.86	227.30
930.16	227.27
930.46	227.24
930.76	227.24
931.06	227.17
931.36	227.11
931.66	227.13
931.96	227.15
932.26	227.15
932.56	227.06
932.86	227.08
933.16	227.08
933.46	227.08
933.76	227.05
934.06	227.10
934.36	227.15
934.66	227.12
934.96	227.09
935.26	227.10
935.56	227.12
935.86	227.08
936.16	227.08
936.46	227.07
936.76	227.07
937.06	227.05
937.36	227.07
937.66	227.08
937.96	227.08
938.26	227.05
938.56	227.06
938.86	227.07
939.16	227.11
939.46	227.12
939.76	227.13
940.06	227.13
940.35	227.08
940.65	226.98
940.95	227.00
941.25	226.95
941.55	226.92
941.85	226.92
942.15	226.96
942.45	226.99
942.75	226.99
943.04	226.98
943.34	227.00
943.64	226.99
943.94	226.97
944.24	226.98
944.54	226.99
944.84	226.99
945.13	226.95
945.43	226.92
945.73	226.91
946.03	226.90
946.33	226.87
946.62	226.85
946.92	226.87
947.22	226.87
947.52	226.90
947.82	226.93
948.11	226.90
948.41	226.87
948.71	226.83
949.01	226.84
949.31	226.85
949.60	226.84
949.90	226.88
950.20	226.86
950.50	226.85
950.79	226.84
951.09	226.85
951.39	226.85
951.69	226.83
951.98	226.88
952.28	226.88
952.58	226.88
952.87	226.90
953.17	226.93
953.47	226.91
953.76	226.90
954.06	226.88
954.36	226.86
954.66	226.84
954.95	226.91
955.25	226.91
955.55	226.92
955.84	226.89
956.14	226.90
956.44	226.90
956.73	226.87
957.03	226.86
957.32	226.87
957.62	226.87
957.92	226.91
958.21	226.87
958.51	227.08
958.81	227.12
959.10	227.12
959.40	227.15
959.69	227.17
959.99	227.21
960.29	227.22
960.58	227.22
960.88	227.29
961.17	227.27
961.47	227.29
961.76	227.27
962.06	227.30
962.36	227.27
962.65	227.29
962.95	227.31
963.24	227.31
963.54	227.30
963.83	227.31
964.13	227.29
964.42	227.27
964.72	227.12
965.01	227.12
965.31	227.10
965.60	227.06
965.90	227.18
966.19	227.13
966.49	227.13
966.78	227.12
967.08	227.10
967.37	227.10
967.67	227.05
967.96	227.09
968.26	227.09
968.55	227.12
968.85	227.11
969.14	227.11
969.43	227.11
969.73	227.11
970.02	227.10
970.32	227.09
970.61	227.07
970.91	227.00
971.20	226.98
971.49	226.96
971.79	226.97
972.08	226.84
972.38	226.86
972.67	226.85
972.96	226.88
973.26	226.84
973.55	226.89
973.85	226.90
974.14	226.86
974.43	226.89
974.73	226.86
975.02	226.87
975.31	226.86
975.61	226.85
975.90	226.82
976.19	226.82
976.49	226.84
976.78	226.86
977.07	226.87
977.37	226.87
977.66	226.92
977.95	226.90
978.24	226.90
978.54	226.94
978.83	226.94
979.12	226.94
979.42	226.94
979.71	226.90
980.00	226.90
980.29	226.91
980.59	226.87
980.88	226.90
981.17	226.89
981.46	226.91
981.76	226.93
982.05	227.00
982.34	227.00
982.63	226.99
982.93	226.99
983.22	227.05
983.51	227.06
983.80	227.08
984.09	227.11
984.39	227.11
984.68	227.07
984.97	227.09
985.26	227.07
985.55	227.09
985.85	227.06
986.14	227.10
986.43	227.12
986.72	227.12
987.01	227.06
987.30	227.05
987.59	227.02
987.89	227.00
988.18	226.95
988.47	226.95
988.76	226.94
989.05	226.91
989.34	226.87
989.63	226.91
989.92	226.86
990.22	226.84
990.51	226.84
990.80	226.83
991.09	226.84
991.38	226.87
991.67	226.86
991.96	226.85
992.25	226.85
992.54	226.82
992.83	226.83
993.12	226.84
993.41	226.88
993.70	226.96
993.99	227.00
994.28	227.04
994.58	227.06
994.87	227.03
995.16	227.03
995.45	227.02
995.74	226.96
996.03	227.00
996.32	227.03
996.61	227.08
996.90	227.06
997.19	227.04
997.48	227.02
997.77	226.98
998.06	227.00
998.34	226.98
998.63	226.98
998.92	226.98
999.21	227.00
999.50	226.99
999.79	226.92
1000.08	226.92
1000.37	226.89
1000.66	226.88
1000.95	226.93
1001.24	226.94
1001.53	226.96
1001.82	226.97
1002.11	226.92
1002.40	226.94
1002.68	226.96
1002.97	227.10
1003.26	227.09
1003.55	227.07
1003.84	227.10
1004.13	227.16
1004.42	227.16
1004.71	227.14
1004.99	227.13
1005.28	227.17
1005.57	227.16
1005.86	227.15
1006.15	227.13
1006.44	227.11
1006.72	227.13
1007.01	227.09
1007.30	227.08
1007.59	227.06
1007.88	227.07
1008.17	227.07
1008.45	227.03
1008.74	226.94
1009.03	226.86
1009.32	226.85
1009.60	226.85
1009.89	226.83
1010.18	226.74
1010.47	226.74
1010.76	226.74
1011.04	226.74
1011.33	226.73
1011.62	226.74
1011.91	226.77
1012.19	226.76
1012.48	226.76
1012.77	226.76
1013.05	226.82
1013.34	226.85
1013.63	226.84
1013.92	226.85
1014.20	226.83
1014.49	226.84
1014.78	226.88
1015.06	226.82
1015.35	226.82
1015.64	226.86
1015.92	226.89
1016.21	226.91
1016.50	226.89
1016.78	226.92
1017.07	226.94
1017.36	226.91
1017.64	226.89
1017.93	226.89
1018.22	226.88
1018.50	226.87
1018.79	226.86
1019.08	226.80
1019.36	226.81
1019.65	226.78
1019.93	226.82
1020.22	226.87
1020.51	226.95
1020.79	226.93
1021.08	226.54
1021.36	226.29
1021.65	226.92
1021.94	226.82
1022.22	227.14
1022.51	226.30
1022.79	227.62
1023.08	227.29
1023.36	228.99
1023.65	226.53
>>>>>End Processed Spectral Data<<<<<
