SpectraSuite Data File
++++++++++++++++++++++++++++++++++++
Date: Tue Oct 06 15:43:34 EDT 2015
User: lab3
Dark Spectrum Present: No
Reference Spectrum Present: No
Number of Sampled Component Spectra: 1
Spectrometers: USB2E7196
Integration Time (usec): 66000 (USB2E7196)
Spectra Averaged: 1000 (USB2E7196)
Boxcar Smoothing: 10 (USB2E7196)
Correct for Electrical Dark: No (USB2E7196)
Strobe/Lamp Enabled: No (USB2E7196)
Correct for Detector Non-linearity: No (USB2E7196)
Correct for Stray Light: No (USB2E7196)
Number of Pixels in Processed Spectrum: 2048
>>>>>Begin Processed Spectral Data<<<<<
339.09	0.00
339.48	215.44
339.86	217.16
340.24	218.34
340.63	219.81
341.01	223.87
341.39	222.53
341.78	224.09
342.16	225.36
342.54	225.62
342.93	213.99
343.31	224.80
343.69	225.34
344.07	225.80
344.46	226.25
344.84	226.65
345.22	226.83
345.60	227.11
345.99	227.30
346.37	227.44
346.75	227.55
347.13	227.63
347.52	227.72
347.90	227.85
348.28	227.90
348.66	228.00
349.05	228.00
349.43	228.07
349.81	228.14
350.19	228.22
350.57	228.30
350.96	228.39
351.34	228.49
351.72	228.59
352.10	228.70
352.48	228.76
352.87	228.81
353.25	228.87
353.63	228.92
354.01	228.99
354.39	229.07
354.77	229.14
355.15	229.26
355.54	229.29
355.92	229.28
356.30	229.35
356.68	229.53
357.06	229.60
357.44	229.64
357.82	229.71
358.20	229.92
358.58	229.97
358.97	230.04
359.35	230.14
359.73	230.24
360.11	230.30
360.49	230.37
360.87	230.43
361.25	230.50
361.63	230.62
362.01	230.67
362.39	230.69
362.77	230.75
363.15	230.77
363.53	230.81
363.91	230.86
364.29	230.87
364.67	230.74
365.05	230.76
365.43	230.81
365.81	230.84
366.19	230.79
366.57	230.88
366.95	230.87
367.33	230.84
367.71	230.83
368.09	230.86
368.47	230.85
368.85	230.85
369.23	230.86
369.61	230.78
369.99	230.82
370.37	230.83
370.75	230.95
371.13	230.92
371.51	230.87
371.89	230.87
372.27	230.86
372.65	230.84
373.03	230.79
373.41	230.74
373.78	230.69
374.16	230.57
374.54	230.47
374.92	230.42
375.30	230.38
375.68	230.31
376.06	230.26
376.44	230.21
376.82	230.18
377.19	230.14
377.57	230.10
377.95	229.99
378.33	229.93
378.71	229.72
379.09	229.68
379.47	229.67
379.84	229.60
380.22	229.53
380.60	229.45
380.98	229.41
381.36	229.36
381.73	229.30
382.11	229.30
382.49	229.26
382.87	229.19
383.25	229.15
383.62	229.33
384.00	229.26
384.38	229.22
384.76	229.22
385.13	229.23
385.51	229.19
385.89	229.14
386.27	229.11
386.64	229.11
387.02	229.06
387.40	229.01
387.78	228.99
388.15	228.98
388.53	228.95
388.91	228.92
389.29	228.89
389.66	228.89
390.04	228.84
390.42	228.85
390.79	228.86
391.17	228.85
391.55	228.62
391.92	228.62
392.30	228.65
392.68	228.60
393.05	228.58
393.43	228.58
393.81	228.60
394.18	228.57
394.56	228.58
394.94	228.62
395.31	228.63
395.69	228.70
396.06	228.75
396.44	228.80
396.82	228.82
397.19	228.95
397.57	228.97
397.95	229.04
398.32	229.03
398.70	229.11
399.07	229.20
399.45	229.27
399.82	229.33
400.20	229.39
400.58	229.48
400.95	229.49
401.33	229.64
401.70	229.88
402.08	230.02
402.45	230.15
402.83	230.32
403.20	230.49
403.58	230.62
403.95	230.82
404.33	231.04
404.71	231.26
405.08	231.57
405.46	231.82
405.83	232.09
406.21	232.40
406.58	232.71
406.96	233.03
407.33	233.41
407.70	233.83
408.08	234.39
408.45	234.90
408.83	235.45
409.20	235.94
409.58	236.39
409.95	237.02
410.33	237.70
410.70	238.35
411.08	239.11
411.45	239.91
411.82	240.73
412.20	241.67
412.57	242.78
412.95	243.66
413.32	244.80
413.69	245.99
414.07	247.24
414.44	248.62
414.82	250.02
415.19	251.65
415.56	253.33
415.94	255.09
416.31	257.04
416.68	259.00
417.06	261.27
417.43	263.40
417.81	265.84
418.18	268.34
418.55	271.05
418.93	273.88
419.30	276.86
419.67	280.01
420.04	283.25
420.42	286.63
420.79	290.54
421.16	294.47
421.54	298.45
421.91	302.63
422.28	306.97
422.66	311.66
423.03	316.12
423.40	320.78
423.77	325.77
424.15	330.88
424.52	336.18
424.89	341.92
425.26	347.61
425.64	352.90
426.01	358.84
426.38	364.91
426.75	371.14
427.13	377.51
427.50	384.21
427.87	391.12
428.24	398.10
428.61	404.80
428.99	412.02
429.36	419.96
429.73	427.51
430.10	435.04
430.47	442.75
430.85	450.72
431.22	459.22
431.59	467.95
431.96	476.46
432.33	485.92
432.70	494.90
433.08	505.56
433.45	515.58
433.82	525.48
434.19	536.59
434.56	547.51
434.93	558.12
435.30	568.62
435.68	580.57
436.05	592.21
436.42	603.87
436.79	614.56
437.16	626.17
437.53	638.55
437.90	650.94
438.27	663.12
438.64	676.27
439.01	688.20
439.38	699.16
439.75	709.75
440.13	721.79
440.50	733.28
440.87	742.46
441.24	752.57
441.61	763.61
441.98	771.79
442.35	781.50
442.72	791.39
443.09	800.75
443.46	806.89
443.83	811.57
444.20	815.47
444.57	821.07
444.94	824.39
445.31	827.85
445.68	830.83
446.05	833.08
446.42	832.81
446.79	832.27
447.16	831.82
447.53	831.47
447.90	827.96
448.27	824.53
448.64	819.14
449.01	815.46
449.37	807.82
449.74	800.85
450.11	791.89
450.48	782.01
450.85	772.19
451.22	763.68
451.59	755.31
451.96	747.73
452.33	736.72
452.70	726.96
453.07	715.12
453.43	703.32
453.80	691.77
454.17	680.72
454.54	670.55
454.91	659.06
455.28	648.19
455.65	637.95
456.02	627.15
456.38	618.45
456.75	607.31
457.12	598.31
457.49	589.25
457.86	580.65
458.23	573.05
458.59	564.68
458.96	556.11
459.33	548.57
459.70	540.90
460.07	535.07
460.43	528.15
460.80	521.71
461.17	516.07
461.54	510.02
461.91	504.33
462.27	498.55
462.64	493.84
463.01	488.44
463.38	483.01
463.74	478.09
464.11	473.74
464.48	469.77
464.85	465.54
465.21	462.27
465.58	458.65
465.95	454.56
466.32	451.31
466.68	448.11
467.05	444.89
467.42	441.74
467.78	438.37
468.15	435.29
468.52	433.04
468.88	430.04
469.25	427.31
469.62	425.11
469.98	422.76
470.35	420.61
470.72	418.70
471.08	416.77
471.45	415.14
471.82	413.33
472.18	411.44
472.55	410.19
472.92	408.66
473.28	407.47
473.65	406.19
474.02	404.96
474.38	403.92
474.75	403.30
475.11	402.47
475.48	402.07
475.85	401.64
476.21	401.35
476.58	401.17
476.94	401.35
477.31	401.42
477.67	401.49
478.04	401.85
478.41	402.27
478.77	402.88
479.14	403.26
479.50	404.05
479.87	405.06
480.23	406.05
480.60	407.00
480.96	407.96
481.33	409.41
481.69	410.84
482.06	412.26
482.42	413.57
482.79	415.19
483.15	417.06
483.52	419.20
483.88	421.25
484.25	423.40
484.61	425.66
484.98	428.08
485.34	430.81
485.71	433.65
486.07	436.72
486.44	439.74
486.80	443.14
487.17	446.64
487.53	450.42
487.90	454.38
488.26	458.68
488.62	463.20
488.99	467.74
489.35	472.47
489.72	477.57
490.08	482.94
490.44	488.43
490.81	494.18
491.17	500.07
491.54	506.38
491.90	512.81
492.26	519.68
492.63	526.86
492.99	534.39
493.36	542.07
493.72	550.14
494.08	558.41
494.45	567.04
494.81	576.05
495.17	585.35
495.54	595.14
495.90	605.35
496.26	615.77
496.63	626.45
496.99	637.55
497.35	649.14
497.72	661.02
498.08	673.23
498.44	685.74
498.80	698.95
499.17	712.44
499.53	726.41
499.89	740.80
500.26	755.37
500.62	770.28
500.98	785.98
501.34	801.73
501.71	818.28
502.07	835.12
502.43	852.39
502.79	869.86
503.16	887.82
503.52	905.98
503.88	924.54
504.24	943.57
504.60	962.83
504.97	982.68
505.33	1002.96
505.69	1024.24
506.05	1045.71
506.41	1067.02
506.78	1088.50
507.14	1110.61
507.50	1133.09
507.86	1155.98
508.22	1179.05
508.59	1201.97
508.95	1225.95
509.31	1250.32
509.67	1275.30
510.03	1300.20
510.39	1325.05
510.75	1349.95
511.12	1375.18
511.48	1400.46
511.84	1425.75
512.20	1451.35
512.56	1477.84
512.92	1504.15
513.28	1529.91
513.64	1556.04
514.00	1582.43
514.37	1609.13
514.73	1635.72
515.09	1661.67
515.45	1687.92
515.81	1714.19
516.17	1740.17
516.53	1765.49
516.89	1790.79
517.25	1816.29
517.61	1841.55
517.97	1867.34
518.33	1892.47
518.69	1917.46
519.05	1942.87
519.41	1968.31
519.77	1993.63
520.13	2017.62
520.49	2041.76
520.85	2066.15
521.21	2089.97
521.57	2114.11
521.93	2137.19
522.29	2160.86
522.65	2184.30
523.01	2207.46
523.37	2229.97
523.73	2253.23
524.09	2276.09
524.45	2298.40
524.81	2320.07
525.17	2341.49
525.53	2362.31
525.89	2383.47
526.25	2404.19
526.61	2423.45
526.97	2442.66
527.33	2461.76
527.68	2480.45
528.04	2498.68
528.40	2515.54
528.76	2532.69
529.12	2549.44
529.48	2566.56
529.84	2581.06
530.20	2596.02
530.56	2609.99
530.91	2624.25
531.27	2637.87
531.63	2650.60
531.99	2663.11
532.35	2675.14
532.71	2686.73
533.07	2698.59
533.42	2708.61
533.78	2719.01
534.14	2730.16
534.50	2740.21
534.86	2750.75
535.21	2759.31
535.57	2767.67
535.93	2775.99
536.29	2782.55
536.65	2788.84
537.00	2793.63
537.36	2799.76
537.72	2804.83
538.08	2809.36
538.44	2812.90
538.79	2816.14
539.15	2818.04
539.51	2819.39
539.87	2819.73
540.22	2818.55
540.58	2817.61
540.94	2817.62
541.29	2816.23
541.65	2813.55
542.01	2810.44
542.37	2805.89
542.72	2802.80
543.08	2798.21
543.44	2793.70
543.79	2788.65
544.15	2782.98
544.51	2777.70
544.87	2771.29
545.22	2764.10
545.58	2756.86
545.94	2749.73
546.29	2741.12
546.65	2732.81
547.01	2724.54
547.36	2716.53
547.72	2708.81
548.07	2699.32
548.43	2688.85
548.79	2678.17
549.14	2667.91
549.50	2657.80
549.86	2646.78
550.21	2634.25
550.57	2622.64
550.92	2609.45
551.28	2596.90
551.64	2584.46
551.99	2571.71
552.35	2558.63
552.70	2545.36
553.06	2532.61
553.41	2519.34
553.77	2505.91
554.13	2492.62
554.48	2478.24
554.84	2463.40
555.19	2449.00
555.55	2434.46
555.90	2420.22
556.26	2406.46
556.61	2391.55
556.97	2375.67
557.32	2360.25
557.68	2345.19
558.03	2329.83
558.39	2315.44
558.74	2301.47
559.10	2285.81
559.45	2270.69
559.81	2256.21
560.16	2241.43
560.52	2226.43
560.87	2211.58
561.23	2196.42
561.58	2181.60
561.94	2166.48
562.29	2150.84
562.64	2135.37
563.00	2120.12
563.35	2105.02
563.71	2089.52
564.06	2074.20
564.42	2059.52
564.77	2044.79
565.12	2029.87
565.48	2014.88
565.83	2000.14
566.19	1985.43
566.54	1971.01
566.89	1955.79
567.25	1940.40
567.60	1925.91
567.96	1910.64
568.31	1894.43
568.66	1879.09
569.02	1864.34
569.37	1850.08
569.72	1836.40
570.08	1822.30
570.43	1807.70
570.78	1792.93
571.14	1777.93
571.49	1763.06
571.84	1748.52
572.20	1732.98
572.55	1718.15
572.90	1703.36
573.26	1688.48
573.61	1672.98
573.96	1658.05
574.31	1643.05
574.67	1628.10
575.02	1612.75
575.37	1597.49
575.72	1582.82
576.08	1568.10
576.43	1552.73
576.78	1537.51
577.13	1522.52
577.49	1507.81
577.84	1493.45
578.19	1478.62
578.54	1463.94
578.90	1449.27
579.25	1434.45
579.60	1420.64
579.95	1406.65
580.30	1392.57
580.66	1378.29
581.01	1364.15
581.36	1350.14
581.71	1336.84
582.06	1323.41
582.42	1309.90
582.77	1296.90
583.12	1284.13
583.47	1271.22
583.82	1258.59
584.17	1245.56
584.53	1232.56
584.88	1219.76
585.23	1206.90
585.58	1194.44
585.93	1181.99
586.28	1170.37
586.63	1158.60
586.98	1146.57
587.34	1134.83
587.69	1122.94
588.04	1111.47
588.39	1100.22
588.74	1088.59
589.09	1077.11
589.44	1065.41
589.79	1054.26
590.14	1043.14
590.49	1032.11
590.84	1021.31
591.19	1010.73
591.54	1000.29
591.89	989.45
592.25	978.99
592.60	968.44
592.95	958.03
593.30	947.88
593.65	937.46
594.00	927.35
594.35	918.09
594.70	908.22
595.05	898.97
595.40	889.43
595.75	879.77
596.10	870.71
596.45	861.64
596.80	852.92
597.15	844.23
597.50	835.55
597.85	827.04
598.19	818.50
598.54	810.00
598.89	801.94
599.24	794.29
599.59	786.49
599.94	779.24
600.29	772.03
600.64	764.68
600.99	757.24
601.34	750.00
601.69	742.27
602.04	735.34
602.39	728.33
602.74	721.49
603.08	714.86
603.43	708.14
603.78	701.41
604.13	694.76
604.48	688.18
604.83	681.78
605.18	675.51
605.53	669.39
605.87	663.20
606.22	657.13
606.57	651.01
606.92	644.77
607.27	638.57
607.62	632.60
607.96	626.88
608.31	621.52
608.66	616.13
609.01	610.97
609.36	605.79
609.70	600.52
610.05	595.32
610.40	590.25
610.75	585.21
611.10	580.36
611.44	575.52
611.79	570.76
612.14	565.94
612.49	561.20
612.83	556.69
613.18	552.23
613.53	547.78
613.88	543.48
614.22	539.49
614.57	535.40
614.92	531.39
615.27	527.51
615.61	523.57
615.96	519.63
616.31	515.71
616.65	511.93
617.00	508.27
617.35	504.63
617.70	501.00
618.04	497.49
618.39	494.08
618.74	490.89
619.08	487.65
619.43	484.52
619.78	481.33
620.12	478.17
620.47	475.22
620.82	472.28
621.16	469.37
621.51	466.51
621.85	463.68
622.20	460.93
622.55	458.10
622.89	455.33
623.24	452.75
623.59	450.19
623.93	447.73
624.28	445.40
624.62	443.26
624.97	441.10
625.32	438.83
625.66	436.53
626.01	434.22
626.35	432.05
626.70	429.80
627.04	427.75
627.39	425.65
627.73	423.62
628.08	421.68
628.43	419.75
628.77	417.72
629.12	415.84
629.46	414.02
629.81	412.34
630.15	410.57
630.50	408.82
630.84	407.10
631.19	405.42
631.53	403.79
631.88	402.02
632.22	400.34
632.57	398.94
632.91	397.49
633.26	396.11
633.60	394.74
633.95	393.46
634.29	392.07
634.64	390.71
634.98	389.22
635.32	387.89
635.67	386.67
636.01	385.47
636.36	384.30
636.70	383.24
637.05	381.99
637.39	380.89
637.73	379.78
638.08	378.75
638.42	377.75
638.77	376.61
639.11	375.44
639.45	374.32
639.80	373.12
640.14	372.04
640.49	370.93
640.83	369.80
641.17	368.70
641.52	367.66
641.86	366.65
642.20	365.81
642.55	364.76
642.89	363.73
643.23	362.79
643.58	361.93
643.92	360.91
644.26	360.00
644.61	359.12
644.95	358.19
645.29	357.19
645.64	356.16
645.98	355.26
646.32	354.45
646.66	353.60
647.01	352.77
647.35	352.00
647.69	351.21
648.04	350.52
648.38	349.75
648.72	349.02
649.06	348.26
649.41	347.45
649.75	346.71
650.09	346.01
650.43	345.25
650.78	344.50
651.12	343.76
651.46	343.03
651.80	342.31
652.14	341.65
652.49	341.03
652.83	340.37
653.17	339.67
653.51	339.01
653.85	338.43
654.20	337.82
654.54	337.08
654.88	336.39
655.22	335.74
655.56	335.06
655.90	334.40
656.25	333.77
656.59	333.15
656.93	332.57
657.27	332.03
657.61	331.41
657.95	330.84
658.29	330.27
658.64	329.72
658.98	329.12
659.32	328.53
659.66	327.98
660.00	327.45
660.34	326.92
660.68	326.34
661.02	325.71
661.36	325.10
661.70	324.56
662.05	324.03
662.39	323.49
662.73	323.05
663.07	322.64
663.41	322.18
663.75	321.67
664.09	321.15
664.43	320.54
664.77	320.03
665.11	319.44
665.45	318.91
665.79	318.40
666.13	317.87
666.47	317.33
666.81	316.74
667.15	316.15
667.49	315.67
667.83	315.25
668.17	314.78
668.51	314.35
668.85	313.94
669.19	313.58
669.53	313.05
669.87	312.49
670.21	311.94
670.55	311.43
670.89	311.03
671.23	310.59
671.57	310.22
671.91	309.84
672.25	309.49
672.58	309.17
672.92	308.73
673.26	308.38
673.60	308.00
673.94	307.64
674.28	307.30
674.62	306.91
674.96	306.46
675.30	306.06
675.64	305.62
675.97	305.15
676.31	304.66
676.65	304.23
676.99	303.90
677.33	303.46
677.67	303.05
678.01	302.57
678.34	302.14
678.68	301.73
679.02	301.28
679.36	300.84
679.70	300.37
680.04	299.97
680.37	299.55
680.71	299.15
681.05	298.78
681.39	298.34
681.73	297.87
682.06	297.45
682.40	297.05
682.74	296.69
683.08	296.40
683.42	296.01
683.75	295.65
684.09	295.18
684.43	294.77
684.77	294.36
685.10	293.95
685.44	293.55
685.78	293.13
686.12	292.73
686.45	292.31
686.79	291.84
687.13	291.45
687.46	290.98
687.80	290.56
688.14	290.08
688.48	289.66
688.81	289.24
689.15	288.88
689.49	288.44
689.82	288.00
690.16	287.47
690.50	287.01
690.83	286.57
691.17	286.12
691.51	285.70
691.84	285.31
692.18	284.88
692.52	284.42
692.85	283.98
693.19	283.61
693.52	283.18
693.86	282.78
694.20	282.33
694.53	281.92
694.87	281.47
695.21	281.03
695.54	280.61
695.88	280.17
696.21	279.68
696.55	279.26
696.88	278.82
697.22	278.41
697.56	278.02
697.89	277.57
698.23	277.17
698.56	276.73
698.90	276.32
699.23	275.87
699.57	275.48
699.90	275.07
700.24	274.61
700.58	274.22
700.91	273.86
701.25	273.63
701.58	273.34
701.92	273.00
702.25	272.67
702.59	272.28
702.92	271.90
703.26	271.51
703.59	271.13
703.93	270.90
704.26	270.53
704.60	270.14
704.93	269.78
705.26	269.39
705.60	269.07
705.93	268.66
706.27	268.37
706.60	268.06
706.94	267.75
707.27	267.36
707.61	267.01
707.94	266.63
708.27	266.10
708.61	265.66
708.94	265.27
709.28	264.89
709.61	264.53
709.94	264.22
710.28	263.89
710.61	263.58
710.95	263.09
711.28	262.88
711.61	262.54
711.95	262.25
712.28	261.92
712.61	261.56
712.95	261.33
713.28	261.06
713.61	260.70
713.95	260.33
714.28	260.04
714.61	259.71
714.95	259.40
715.28	259.09
715.61	258.80
715.95	258.53
716.28	258.24
716.61	258.00
716.95	257.68
717.28	257.41
717.61	257.11
717.94	256.83
718.28	256.44
718.61	256.16
718.94	255.86
719.27	255.60
719.61	255.37
719.94	255.07
720.27	254.73
720.60	254.47
720.94	254.22
721.27	253.98
721.60	253.75
721.93	253.49
722.27	253.29
722.60	253.06
722.93	252.79
723.26	252.56
723.59	252.28
723.93	252.08
724.26	251.86
724.59	251.63
724.92	251.42
725.25	251.25
725.59	251.02
725.92	250.82
726.25	250.61
726.58	250.39
726.91	250.15
727.24	249.95
727.57	249.72
727.91	249.48
728.24	249.30
728.57	249.08
728.90	248.89
729.23	248.64
729.56	248.51
729.89	248.31
730.22	248.10
730.55	247.90
730.89	247.70
731.22	247.49
731.55	247.29
731.88	247.11
732.21	246.89
732.54	246.71
732.87	246.54
733.20	246.37
733.53	246.19
733.86	246.04
734.19	245.85
734.52	245.72
734.85	245.70
735.18	245.49
735.51	245.37
735.84	245.22
736.17	245.12
736.50	244.86
736.83	244.90
737.16	244.76
737.49	244.61
737.82	244.44
738.15	244.30
738.48	244.14
738.81	243.96
739.14	243.79
739.47	243.61
739.80	243.44
740.13	243.30
740.46	243.11
740.79	242.92
741.12	242.76
741.45	242.57
741.78	242.32
742.11	242.21
742.44	242.02
742.77	241.88
743.10	241.70
743.43	241.56
743.75	241.22
744.08	241.34
744.41	241.18
744.74	241.04
745.07	240.87
745.40	240.78
745.73	240.71
746.06	240.60
746.39	240.50
746.71	240.36
747.04	240.21
747.37	240.08
747.70	240.00
748.03	239.87
748.36	239.77
748.68	239.64
749.01	239.46
749.34	239.36
749.67	239.25
750.00	239.16
750.33	239.18
750.65	239.08
750.98	238.70
751.31	238.61
751.64	238.51
751.97	238.51
752.29	238.39
752.62	238.21
752.95	238.09
753.28	237.95
753.60	237.84
753.93	237.77
754.26	237.68
754.59	237.52
754.91	237.40
755.24	237.29
755.57	237.19
755.90	237.10
756.22	236.97
756.55	236.83
756.88	236.69
757.20	236.48
757.53	236.33
757.86	236.24
758.19	236.15
758.51	236.05
758.84	235.86
759.17	235.74
759.49	235.66
759.82	235.64
760.15	235.57
760.47	235.50
760.80	235.36
761.13	235.30
761.45	235.21
761.78	235.14
762.11	235.06
762.43	234.96
762.76	234.87
763.08	234.82
763.41	234.76
763.74	234.69
764.06	234.61
764.39	234.54
764.71	234.46
765.04	234.37
765.37	234.29
765.69	234.20
766.02	234.12
766.34	234.04
766.67	233.90
767.00	233.87
767.32	233.88
767.65	233.94
767.97	233.84
768.30	233.80
768.62	233.74
768.95	233.65
769.27	233.59
769.60	233.55
769.92	233.45
770.25	233.36
770.57	233.26
770.90	233.21
771.22	233.14
771.55	233.09
771.87	233.04
772.20	232.98
772.52	233.09
772.85	233.25
773.17	233.20
773.50	233.14
773.82	233.06
774.15	232.92
774.47	232.76
774.80	232.70
775.12	232.64
775.45	232.58
775.77	232.55
776.09	232.52
776.42	232.48
776.74	232.50
777.07	232.46
777.39	232.44
777.72	232.38
778.04	232.37
778.36	232.31
778.69	232.27
779.01	232.25
779.33	232.05
779.66	231.80
779.98	231.75
780.31	231.73
780.63	231.76
780.95	231.75
781.28	231.72
781.60	231.67
781.92	231.65
782.25	231.61
782.57	231.59
782.89	231.54
783.22	231.49
783.54	231.42
783.86	231.41
784.19	231.37
784.51	231.41
784.83	231.35
785.16	231.32
785.48	231.30
785.80	231.26
786.12	231.26
786.45	231.24
786.77	231.23
787.09	231.18
787.42	231.09
787.74	231.06
788.06	231.04
788.38	231.02
788.71	230.96
789.03	230.95
789.35	230.94
789.67	230.89
789.99	230.88
790.32	230.83
790.64	230.82
790.96	230.97
791.28	230.88
791.61	230.84
791.93	230.82
792.25	230.77
792.57	230.87
792.89	230.81
793.21	230.80
793.54	230.77
793.86	230.73
794.18	230.72
794.50	230.66
794.82	230.64
795.14	230.63
795.47	230.64
795.79	230.62
796.11	230.56
796.43	230.53
796.75	230.51
797.07	230.50
797.39	230.45
797.71	230.28
798.04	230.27
798.36	230.27
798.68	230.25
799.00	230.24
799.32	230.13
799.64	230.15
799.96	230.13
800.28	230.15
800.60	230.12
800.92	230.11
801.24	230.08
801.56	230.08
801.89	230.06
802.21	230.06
802.53	230.01
802.85	230.03
803.17	230.10
803.49	230.05
803.81	230.02
804.13	230.00
804.45	229.96
804.77	229.95
805.09	229.93
805.41	229.90
805.73	229.86
806.05	229.80
806.37	229.76
806.69	229.72
807.01	229.69
807.33	229.69
807.65	229.62
807.97	229.67
808.28	229.63
808.60	229.60
808.92	229.56
809.24	229.66
809.56	229.61
809.88	229.54
810.20	229.53
810.52	229.56
810.84	229.53
811.16	229.49
811.48	229.47
811.80	229.52
812.12	229.51
812.43	229.52
812.75	229.53
813.07	229.51
813.39	229.51
813.71	229.48
814.03	229.45
814.35	229.45
814.67	229.37
814.98	229.35
815.30	229.34
815.62	229.30
815.94	229.16
816.26	229.17
816.58	229.13
816.89	229.14
817.21	229.08
817.53	229.08
817.85	229.08
818.17	229.06
818.48	228.97
818.80	228.99
819.12	228.95
819.44	228.90
819.76	228.87
820.07	228.84
820.39	228.82
820.71	228.83
821.03	228.81
821.34	228.79
821.66	228.80
821.98	228.81
822.30	228.79
822.61	228.90
822.93	228.86
823.25	228.85
823.57	228.83
823.88	228.84
824.20	228.83
824.52	228.86
824.83	228.85
825.15	228.83
825.47	228.81
825.79	228.82
826.10	228.81
826.42	228.80
826.74	228.81
827.05	228.81
827.37	228.79
827.69	228.78
828.00	228.79
828.32	228.77
828.64	228.73
828.95	228.82
829.27	228.76
829.58	228.75
829.90	228.76
830.22	228.76
830.53	228.72
830.85	228.70
831.17	228.64
831.48	228.63
831.80	228.63
832.11	228.61
832.43	228.57
832.75	228.56
833.06	228.67
833.38	228.62
833.69	228.61
834.01	228.61
834.32	228.61
834.64	228.59
834.96	228.58
835.27	228.58
835.59	228.51
835.90	228.48
836.22	228.47
836.53	228.43
836.85	228.40
837.16	228.58
837.48	228.56
837.79	228.62
838.11	228.62
838.42	228.63
838.74	228.63
839.05	228.61
839.37	228.60
839.68	228.47
840.00	228.47
840.31	228.49
840.63	228.47
840.94	228.44
841.26	228.42
841.57	228.42
841.88	228.43
842.20	228.40
842.51	228.38
842.83	228.37
843.14	228.53
843.46	228.53
843.77	228.42
844.08	228.41
844.40	228.34
844.71	228.33
845.03	228.30
845.34	228.27
845.65	228.28
845.97	228.27
846.28	228.28
846.60	228.29
846.91	228.24
847.22	228.23
847.54	228.26
847.85	228.26
848.16	228.23
848.48	228.19
848.79	228.26
849.10	228.27
849.42	228.28
849.73	228.11
850.04	228.11
850.36	228.04
850.67	228.08
850.98	228.08
851.30	228.09
851.61	228.08
851.92	228.08
852.23	228.12
852.55	228.14
852.86	228.15
853.17	228.16
853.49	228.20
853.80	228.24
854.11	228.25
854.42	228.28
854.74	228.27
855.05	228.30
855.36	228.20
855.67	228.20
855.99	228.18
856.30	228.39
856.61	228.38
856.92	228.39
857.23	228.38
857.55	228.36
857.86	228.34
858.17	228.37
858.48	228.34
858.79	228.30
859.11	228.32
859.42	228.30
859.73	228.27
860.04	228.26
860.35	228.20
860.66	228.13
860.98	228.12
861.29	228.15
861.60	228.12
861.91	228.17
862.22	228.15
862.53	228.12
862.84	227.91
863.16	227.95
863.47	227.91
863.78	227.88
864.09	227.90
864.40	227.91
864.71	227.91
865.02	227.94
865.33	227.92
865.64	227.88
865.95	227.88
866.27	228.01
866.58	227.99
866.89	228.01
867.20	228.03
867.51	227.99
867.82	227.98
868.13	228.03
868.44	227.97
868.75	228.01
869.06	228.02
869.37	228.05
869.68	228.00
869.99	228.03
870.30	228.04
870.61	228.06
870.92	228.04
871.23	228.02
871.54	228.04
871.85	228.07
872.16	228.09
872.47	228.07
872.78	227.96
873.09	227.98
873.40	227.95
873.71	227.96
874.02	227.97
874.33	227.95
874.64	227.92
874.95	227.96
875.26	227.91
875.56	227.92
875.87	227.88
876.18	227.87
876.49	228.05
876.80	228.03
877.11	227.99
877.42	228.00
877.73	228.01
878.04	227.98
878.35	227.98
878.66	227.99
878.96	227.99
879.27	227.98
879.58	227.96
879.89	227.96
880.20	228.01
880.51	228.00
880.82	228.00
881.12	227.99
881.43	227.95
881.74	227.94
882.05	227.92
882.36	227.94
882.67	227.94
882.97	227.76
883.28	227.74
883.59	227.74
883.90	227.75
884.21	227.77
884.51	227.75
884.82	227.71
885.13	227.69
885.44	227.68
885.74	227.68
886.05	227.68
886.36	227.68
886.67	227.62
886.98	227.71
887.28	227.72
887.59	227.72
887.90	227.74
888.20	227.73
888.51	227.77
888.82	227.73
889.13	227.74
889.43	227.89
889.74	227.89
890.05	227.88
890.35	227.85
890.66	227.83
890.97	227.82
891.28	227.82
891.58	227.83
891.89	227.84
892.20	227.81
892.50	227.80
892.81	227.79
893.12	227.78
893.42	227.69
893.73	227.69
894.04	227.69
894.34	227.69
894.65	227.69
894.95	227.67
895.26	227.68
895.57	227.76
895.87	227.58
896.18	227.61
896.48	227.63
896.79	227.63
897.10	227.66
897.40	227.67
897.71	227.69
898.01	227.68
898.32	227.70
898.63	227.71
898.93	227.72
899.24	227.72
899.54	227.72
899.85	227.71
900.15	227.71
900.46	227.70
900.76	227.71
901.07	227.70
901.38	227.69
901.68	227.71
901.99	227.62
902.29	227.63
902.60	227.62
902.90	227.61
903.21	227.60
903.51	227.58
903.82	227.61
904.12	227.61
904.43	227.61
904.73	227.59
905.03	227.60
905.34	227.76
905.64	227.75
905.95	227.75
906.25	227.75
906.56	227.75
906.86	227.76
907.17	227.74
907.47	227.76
907.77	227.74
908.08	227.71
908.38	227.72
908.69	227.73
908.99	227.76
909.30	227.76
909.60	227.77
909.90	227.76
910.21	227.71
910.51	227.68
910.81	227.67
911.12	227.67
911.42	227.67
911.73	227.48
912.03	227.51
912.33	227.55
912.64	227.53
912.94	227.51
913.24	227.47
913.55	227.45
913.85	227.43
914.15	227.47
914.46	227.48
914.76	227.46
915.06	227.45
915.37	227.41
915.67	227.40
915.97	227.40
916.27	227.38
916.58	227.38
916.88	227.40
917.18	227.39
917.49	227.50
917.79	227.49
918.09	227.53
918.39	227.56
918.70	227.54
919.00	227.55
919.30	227.64
919.60	227.63
919.91	227.61
920.21	227.64
920.51	227.59
920.81	227.58
921.12	227.63
921.42	227.62
921.72	227.63
922.02	227.65
922.32	227.66
922.63	227.68
922.93	227.78
923.23	227.79
923.53	227.77
923.83	227.65
924.13	227.67
924.44	227.66
924.74	227.69
925.04	227.74
925.34	227.74
925.64	227.66
925.94	227.67
926.24	227.78
926.55	227.76
926.85	227.80
927.15	227.80
927.45	227.78
927.75	227.79
928.05	227.80
928.35	227.78
928.65	227.80
928.95	227.81
929.26	227.72
929.56	227.75
929.86	227.77
930.16	227.75
930.46	227.73
930.76	227.75
931.06	227.67
931.36	227.60
931.66	227.63
931.96	227.65
932.26	227.65
932.56	227.57
932.86	227.59
933.16	227.59
933.46	227.57
933.76	227.55
934.06	227.57
934.36	227.62
934.66	227.61
934.96	227.59
935.26	227.59
935.56	227.62
935.86	227.57
936.16	227.55
936.46	227.54
936.76	227.52
937.06	227.48
937.36	227.49
937.66	227.51
937.96	227.49
938.26	227.46
938.56	227.45
938.86	227.46
939.16	227.49
939.46	227.51
939.76	227.52
940.06	227.53
940.35	227.50
940.65	227.41
940.95	227.43
941.25	227.40
941.55	227.39
941.85	227.38
942.15	227.42
942.45	227.47
942.75	227.46
943.04	227.48
943.34	227.52
943.64	227.52
943.94	227.49
944.24	227.49
944.54	227.51
944.84	227.50
945.13	227.48
945.43	227.44
945.73	227.43
946.03	227.41
946.33	227.39
946.62	227.37
946.92	227.37
947.22	227.39
947.52	227.40
947.82	227.41
948.11	227.39
948.41	227.35
948.71	227.30
949.01	227.32
949.31	227.30
949.60	227.28
949.90	227.31
950.20	227.31
950.50	227.30
950.79	227.29
951.09	227.31
951.39	227.31
951.69	227.30
951.98	227.33
952.28	227.36
952.58	227.35
952.87	227.36
953.17	227.38
953.47	227.35
953.76	227.34
954.06	227.30
954.36	227.27
954.66	227.28
954.95	227.32
955.25	227.33
955.55	227.35
955.84	227.32
956.14	227.33
956.44	227.34
956.73	227.31
957.03	227.33
957.32	227.33
957.62	227.32
957.92	227.35
958.21	227.32
958.51	227.52
958.81	227.54
959.10	227.56
959.40	227.59
959.69	227.60
959.99	227.64
960.29	227.65
960.58	227.67
960.88	227.72
961.17	227.71
961.47	227.72
961.76	227.70
962.06	227.75
962.36	227.72
962.65	227.74
962.95	227.76
963.24	227.74
963.54	227.75
963.83	227.76
964.13	227.75
964.42	227.74
964.72	227.58
965.01	227.59
965.31	227.58
965.60	227.53
965.90	227.65
966.19	227.60
966.49	227.62
966.78	227.60
967.08	227.59
967.37	227.59
967.67	227.55
967.96	227.60
968.26	227.57
968.55	227.60
968.85	227.58
969.14	227.58
969.43	227.57
969.73	227.56
970.02	227.55
970.32	227.54
970.61	227.51
970.91	227.44
971.20	227.41
971.49	227.41
971.79	227.44
972.08	227.31
972.38	227.34
972.67	227.33
972.96	227.37
973.26	227.33
973.55	227.40
973.85	227.38
974.14	227.36
974.43	227.38
974.73	227.35
975.02	227.34
975.31	227.35
975.61	227.35
975.90	227.34
976.19	227.32
976.49	227.34
976.78	227.36
977.07	227.38
977.37	227.40
977.66	227.41
977.95	227.38
978.24	227.40
978.54	227.42
978.83	227.41
979.12	227.39
979.42	227.40
979.71	227.35
980.00	227.35
980.29	227.34
980.59	227.32
980.88	227.36
981.17	227.36
981.46	227.35
981.76	227.35
982.05	227.41
982.34	227.42
982.63	227.41
982.93	227.42
983.22	227.46
983.51	227.46
983.80	227.49
984.09	227.51
984.39	227.51
984.68	227.48
984.97	227.48
985.26	227.47
985.55	227.48
985.85	227.46
986.14	227.48
986.43	227.52
986.72	227.51
987.01	227.45
987.30	227.45
987.59	227.44
987.89	227.44
988.18	227.38
988.47	227.36
988.76	227.34
989.05	227.32
989.34	227.29
989.63	227.35
989.92	227.32
990.22	227.29
990.51	227.27
990.80	227.26
991.09	227.27
991.38	227.29
991.67	227.27
991.96	227.26
992.25	227.28
992.54	227.24
992.83	227.24
993.12	227.26
993.41	227.28
993.70	227.36
993.99	227.39
994.28	227.42
994.58	227.45
994.87	227.44
995.16	227.44
995.45	227.42
995.74	227.35
996.03	227.37
996.32	227.40
996.61	227.45
996.90	227.44
997.19	227.44
997.48	227.44
997.77	227.42
998.06	227.43
998.34	227.40
998.63	227.39
998.92	227.40
999.21	227.42
999.50	227.41
999.79	227.35
1000.08	227.35
1000.37	227.32
1000.66	227.30
1000.95	227.34
1001.24	227.35
1001.53	227.38
1001.82	227.38
1002.11	227.34
1002.40	227.34
1002.68	227.37
1002.97	227.50
1003.26	227.47
1003.55	227.45
1003.84	227.46
1004.13	227.52
1004.42	227.51
1004.71	227.51
1004.99	227.51
1005.28	227.55
1005.57	227.53
1005.86	227.51
1006.15	227.50
1006.44	227.49
1006.72	227.52
1007.01	227.48
1007.30	227.49
1007.59	227.47
1007.88	227.48
1008.17	227.49
1008.45	227.45
1008.74	227.38
1009.03	227.30
1009.32	227.30
1009.60	227.30
1009.89	227.29
1010.18	227.21
1010.47	227.22
1010.76	227.22
1011.04	227.22
1011.33	227.21
1011.62	227.23
1011.91	227.24
1012.19	227.26
1012.48	227.27
1012.77	227.25
1013.05	227.33
1013.34	227.32
1013.63	227.32
1013.92	227.33
1014.20	227.32
1014.49	227.35
1014.78	227.37
1015.06	227.32
1015.35	227.32
1015.64	227.34
1015.92	227.37
1016.21	227.38
1016.50	227.39
1016.78	227.41
1017.07	227.42
1017.36	227.38
1017.64	227.35
1017.93	227.37
1018.22	227.36
1018.50	227.35
1018.79	227.35
1019.08	227.27
1019.36	227.29
1019.65	227.26
1019.93	227.30
1020.22	227.33
1020.51	227.42
1020.79	227.41
1021.08	227.16
1021.36	227.06
1021.65	227.17
1021.94	227.09
1022.22	227.58
1022.51	226.82
1022.79	228.20
1023.08	227.61
1023.36	229.61
1023.65	227.06
>>>>>End Processed Spectral Data<<<<<
