SpectraSuite Data File
++++++++++++++++++++++++++++++++++++
Date: Wed Oct 07 08:53:02 EDT 2015
User: lab3
Dark Spectrum Present: No
Reference Spectrum Present: No
Number of Sampled Component Spectra: 1
Spectrometers: USB2E7196
Integration Time (usec): 66000 (USB2E7196)
Spectra Averaged: 10000 (USB2E7196)
Boxcar Smoothing: 10 (USB2E7196)
Correct for Electrical Dark: No (USB2E7196)
Strobe/Lamp Enabled: No (USB2E7196)
Correct for Detector Non-linearity: No (USB2E7196)
Correct for Stray Light: No (USB2E7196)
Number of Pixels in Processed Spectrum: 2048
>>>>>Begin Processed Spectral Data<<<<<
339.09	0.00
339.48	212.37
339.86	213.84
340.24	215.19
340.63	216.60
341.01	220.80
341.39	219.32
341.78	220.85
342.16	222.14
342.54	222.40
342.93	211.00
343.31	221.66
343.69	222.20
344.07	222.66
344.46	223.11
344.84	223.52
345.22	223.72
345.60	224.00
345.99	224.20
346.37	224.35
346.75	224.47
347.13	224.57
347.52	224.66
347.90	224.79
348.28	224.84
348.66	224.93
349.05	224.92
349.43	225.00
349.81	225.08
350.19	225.15
350.57	225.23
350.96	225.34
351.34	225.45
351.72	225.56
352.10	225.69
352.48	225.76
352.87	225.81
353.25	225.87
353.63	225.92
354.01	225.99
354.39	226.07
354.77	226.15
355.15	226.27
355.54	226.31
355.92	226.32
356.30	226.39
356.68	226.58
357.06	226.66
357.44	226.70
357.82	226.76
358.20	226.98
358.58	227.04
358.97	227.11
359.35	227.20
359.73	227.30
360.11	227.35
360.49	227.42
360.87	227.47
361.25	227.54
361.63	227.65
362.01	227.71
362.39	227.74
362.77	227.79
363.15	227.81
363.53	227.85
363.91	227.90
364.29	227.92
364.67	227.77
365.05	227.79
365.43	227.83
365.81	227.88
366.19	227.83
366.57	227.91
366.95	227.91
367.33	227.87
367.71	227.87
368.09	227.90
368.47	227.90
368.85	227.89
369.23	227.91
369.61	227.83
369.99	227.87
370.37	227.88
370.75	228.00
371.13	227.97
371.51	227.92
371.89	227.90
372.27	227.89
372.65	227.88
373.03	227.83
373.41	227.79
373.78	227.73
374.16	227.60
374.54	227.50
374.92	227.44
375.30	227.40
375.68	227.32
376.06	227.28
376.44	227.23
376.82	227.19
377.19	227.15
377.57	227.10
377.95	226.99
378.33	226.92
378.71	226.71
379.09	226.68
379.47	226.66
379.84	226.59
380.22	226.53
380.60	226.45
380.98	226.41
381.36	226.36
381.73	226.30
382.11	226.29
382.49	226.26
382.87	226.20
383.25	226.16
383.62	226.33
384.00	226.26
384.38	226.23
384.76	226.22
385.13	226.24
385.51	226.21
385.89	226.15
386.27	226.13
386.64	226.12
387.02	226.07
387.40	226.02
387.78	226.01
388.15	225.99
388.53	225.97
388.91	225.94
389.29	225.90
389.66	225.91
390.04	225.87
390.42	225.88
390.79	225.89
391.17	225.87
391.55	225.66
391.92	225.65
392.30	225.67
392.68	225.63
393.05	225.61
393.43	225.62
393.81	225.65
394.18	225.63
394.56	225.65
394.94	225.71
395.31	225.71
395.69	225.79
396.06	225.84
396.44	225.89
396.82	225.92
397.19	226.06
397.57	226.08
397.95	226.16
398.32	226.15
398.70	226.23
399.07	226.34
399.45	226.40
399.82	226.48
400.20	226.54
400.58	226.63
400.95	226.66
401.33	226.79
401.70	227.03
402.08	227.19
402.45	227.32
402.83	227.50
403.20	227.68
403.58	227.83
403.95	228.04
404.33	228.28
404.71	228.50
405.08	228.82
405.46	229.09
405.83	229.38
406.21	229.69
406.58	230.03
406.96	230.38
407.33	230.77
407.70	231.22
408.08	231.83
408.45	232.36
408.83	232.94
409.20	233.47
409.58	233.95
409.95	234.61
410.33	235.33
410.70	236.01
411.08	236.81
411.45	237.67
411.82	238.53
412.20	239.52
412.57	240.68
412.95	241.62
413.32	242.83
413.69	244.07
414.07	245.40
414.44	246.83
414.82	248.30
415.19	250.02
415.56	251.77
415.94	253.59
416.31	255.63
416.68	257.67
417.06	260.03
417.43	262.25
417.81	264.80
418.18	267.40
418.55	270.23
418.93	273.18
419.30	276.26
419.67	279.52
420.04	282.88
420.42	286.40
420.79	290.45
421.16	294.54
421.54	298.67
421.91	303.00
422.28	307.49
422.66	312.34
423.03	316.93
423.40	321.75
423.77	326.91
424.15	332.19
424.52	337.68
424.89	343.62
425.26	349.51
425.64	354.96
426.01	361.10
426.38	367.38
426.75	373.83
427.13	380.43
427.50	387.34
427.87	394.51
428.24	401.74
428.61	408.66
428.99	416.13
429.36	424.36
429.73	432.20
430.10	440.04
430.47	448.06
430.85	456.35
431.22	465.16
431.59	474.22
431.96	483.08
432.33	492.91
432.70	502.28
433.08	513.36
433.45	523.82
433.82	534.17
434.19	545.77
434.56	557.20
434.93	568.26
435.30	579.27
435.68	591.73
436.05	603.94
436.42	616.18
436.79	627.37
437.16	639.55
437.53	652.53
437.90	665.52
438.27	678.27
438.64	692.09
439.01	704.66
439.38	716.20
439.75	727.33
440.13	740.07
440.50	752.16
440.87	761.86
441.24	772.53
441.61	784.21
441.98	792.89
442.35	803.19
442.72	813.67
443.09	823.65
443.46	830.20
443.83	835.19
444.20	839.38
444.57	845.33
444.94	848.93
445.31	852.66
445.68	855.92
446.05	858.43
446.42	858.30
446.79	857.87
447.16	857.55
447.53	857.30
447.90	853.70
448.27	850.32
448.64	844.88
449.01	841.18
449.37	833.26
449.74	826.06
450.11	816.74
450.48	806.50
450.85	796.18
451.22	787.35
451.59	778.63
451.96	770.73
452.33	759.29
452.70	749.06
453.07	736.68
453.43	724.29
453.80	712.19
454.17	700.58
454.54	689.90
454.91	677.84
455.28	666.42
455.65	655.63
456.02	644.17
456.38	634.96
456.75	623.17
457.12	613.68
457.49	604.11
457.86	595.02
458.23	587.00
458.59	578.20
458.96	569.17
459.33	561.24
459.70	553.15
460.07	546.99
460.43	539.75
460.80	532.98
461.17	527.09
461.54	520.74
461.91	514.76
462.27	508.68
462.64	503.72
463.01	498.08
463.38	492.39
463.74	487.27
464.11	482.70
464.48	478.57
464.85	474.11
465.21	470.70
465.58	466.93
465.95	462.66
466.32	459.26
466.68	455.95
467.05	452.60
467.42	449.35
467.78	445.87
468.15	442.65
468.52	440.28
468.88	437.13
469.25	434.26
469.62	431.99
469.98	429.53
470.35	427.35
470.72	425.34
471.08	423.33
471.45	421.65
471.82	419.75
472.18	417.78
472.55	416.50
472.92	414.91
473.28	413.65
473.65	412.30
474.02	410.99
474.38	409.87
474.75	409.20
475.11	408.29
475.48	407.86
475.85	407.37
476.21	407.07
476.58	406.84
476.94	406.97
477.31	406.96
477.67	406.99
478.04	407.24
478.41	407.63
478.77	408.21
479.14	408.53
479.50	409.29
479.87	410.29
480.23	411.26
480.60	412.16
480.96	413.07
481.33	414.51
481.69	415.92
482.06	417.30
482.42	418.55
482.79	420.13
483.15	421.99
483.52	424.11
483.88	426.12
484.25	428.26
484.61	430.51
484.98	432.94
485.34	435.68
485.71	438.52
486.07	441.60
486.44	444.61
486.80	448.02
487.17	451.51
487.53	455.28
487.90	459.24
488.26	463.57
488.62	468.14
488.99	472.71
489.35	477.51
489.72	482.68
490.08	488.12
490.44	493.66
490.81	499.42
491.17	505.36
491.54	511.75
491.90	518.27
492.26	525.26
492.63	532.58
492.99	540.25
493.36	548.09
493.72	556.30
494.08	564.76
494.45	573.64
494.81	582.92
495.17	592.44
495.54	602.51
495.90	613.01
496.26	623.70
496.63	634.72
496.99	646.13
497.35	658.08
497.72	670.36
498.08	682.96
498.44	695.95
498.80	709.62
499.17	723.58
499.53	738.01
499.89	752.88
500.26	768.03
500.62	783.52
500.98	799.95
501.34	816.41
501.71	833.61
502.07	851.18
502.43	869.21
502.79	887.55
503.16	906.35
503.52	925.38
503.88	944.84
504.24	964.79
504.60	985.01
504.97	1005.84
505.33	1027.23
505.69	1049.74
506.05	1072.46
506.41	1095.22
506.78	1118.13
507.14	1141.56
507.50	1165.52
507.86	1189.86
508.22	1214.42
508.59	1238.86
508.95	1264.35
509.31	1290.43
509.67	1317.18
510.03	1343.96
510.39	1370.54
510.75	1397.22
511.12	1424.17
511.48	1451.56
511.84	1478.86
512.20	1506.48
512.56	1535.25
512.92	1563.90
513.28	1591.79
513.64	1620.14
514.00	1648.87
514.37	1677.90
514.73	1707.03
515.09	1735.47
515.45	1764.07
515.81	1793.11
516.17	1821.85
516.53	1849.90
516.89	1877.61
517.25	1905.55
517.61	1933.30
517.97	1961.73
518.33	1989.71
518.69	2017.62
519.05	2045.77
519.41	2074.08
519.77	2102.63
520.13	2129.57
520.49	2156.34
520.85	2183.62
521.21	2210.26
521.57	2237.21
521.93	2262.94
522.29	2289.43
522.65	2315.70
523.01	2341.76
523.37	2366.92
523.73	2392.92
524.09	2418.56
524.45	2444.06
524.81	2468.99
525.17	2493.77
525.53	2517.46
525.89	2541.65
526.25	2565.60
526.61	2587.75
526.97	2609.92
527.33	2631.67
527.68	2653.52
528.04	2674.95
528.40	2695.30
528.76	2715.54
529.12	2735.22
529.48	2755.79
529.84	2773.56
530.20	2791.53
530.56	2808.88
530.91	2826.21
531.27	2842.78
531.63	2858.53
531.99	2873.74
532.35	2888.75
532.71	2903.44
533.07	2918.70
533.42	2931.76
533.78	2944.93
534.14	2959.30
534.50	2972.61
534.86	2986.59
535.21	2997.93
535.57	3009.23
535.93	3019.96
536.29	3029.18
536.65	3038.12
537.00	3045.82
537.36	3054.55
537.72	3062.52
538.08	3070.10
538.44	3076.27
538.79	3082.37
539.15	3087.24
539.51	3091.35
539.87	3094.06
540.22	3094.94
540.58	3096.13
540.94	3097.98
541.29	3098.90
541.65	3098.24
542.01	3097.18
542.37	3094.25
542.72	3093.26
543.08	3090.42
543.44	3087.75
543.79	3084.94
544.15	3081.38
544.51	3077.48
544.87	3072.80
545.22	3067.08
545.58	3060.69
545.94	3054.87
546.29	3047.58
546.65	3040.28
547.01	3033.17
547.36	3026.74
547.72	3020.50
548.07	3012.40
548.43	3003.18
548.79	2993.44
549.14	2984.05
549.50	2974.77
549.86	2964.75
550.21	2952.75
550.57	2942.15
550.92	2929.99
551.28	2917.83
551.64	2906.00
551.99	2894.06
552.35	2881.65
552.70	2869.17
553.06	2857.29
553.41	2844.90
553.77	2832.01
554.13	2819.25
554.48	2805.44
554.84	2790.15
555.19	2775.27
555.55	2760.52
555.90	2746.30
556.26	2732.39
556.61	2717.38
556.97	2701.19
557.32	2685.34
557.68	2670.00
558.03	2654.18
558.39	2639.18
558.74	2625.01
559.10	2609.01
559.45	2592.88
559.81	2577.31
560.16	2561.33
560.52	2545.05
560.87	2529.15
561.23	2512.81
561.58	2497.04
561.94	2480.87
562.29	2464.40
562.64	2448.14
563.00	2431.82
563.35	2415.76
563.71	2399.22
564.06	2382.90
564.42	2367.10
564.77	2351.45
565.12	2335.47
565.48	2319.07
565.83	2302.71
566.19	2286.28
566.54	2269.98
566.89	2253.32
567.25	2236.80
567.60	2221.24
567.96	2205.11
568.31	2187.35
568.66	2170.24
569.02	2153.86
569.37	2138.04
569.72	2122.77
570.08	2107.11
570.43	2090.72
570.78	2074.07
571.14	2057.47
571.49	2040.78
571.84	2024.30
572.20	2006.59
572.55	1989.52
572.90	1972.68
573.26	1956.16
573.61	1938.93
573.96	1922.23
574.31	1905.42
574.67	1888.18
575.02	1870.49
575.37	1852.79
575.72	1836.04
576.08	1819.23
576.43	1801.40
576.78	1783.90
577.13	1766.63
577.49	1749.53
577.84	1733.05
578.19	1716.14
578.54	1699.11
578.90	1682.02
579.25	1664.69
579.60	1648.75
579.95	1632.50
580.30	1616.23
580.66	1599.60
581.01	1583.09
581.36	1566.58
581.71	1550.99
582.06	1535.52
582.42	1519.92
582.77	1504.66
583.12	1489.64
583.47	1474.74
583.82	1459.99
584.17	1444.61
584.53	1429.39
584.88	1414.53
585.23	1399.51
585.58	1384.88
585.93	1370.11
586.28	1356.35
586.63	1342.56
586.98	1328.17
587.34	1314.27
587.69	1300.20
588.04	1286.37
588.39	1272.84
588.74	1259.00
589.09	1245.27
589.44	1231.14
589.79	1217.74
590.14	1204.36
590.49	1191.00
590.84	1177.84
591.19	1165.13
591.54	1152.61
591.89	1139.72
592.25	1127.11
592.60	1114.38
592.95	1101.79
593.30	1089.71
593.65	1077.30
594.00	1065.21
594.35	1054.06
594.70	1042.19
595.05	1030.92
595.40	1019.58
595.75	1008.10
596.10	997.25
596.45	986.26
596.80	975.88
597.15	965.36
597.50	954.79
597.85	944.69
598.19	934.54
598.54	924.34
598.89	914.64
599.24	905.37
599.59	895.80
599.94	886.98
600.29	878.26
600.64	869.30
600.99	860.22
601.34	851.54
601.69	842.30
602.04	834.03
602.39	825.66
602.74	817.52
603.08	809.48
603.43	801.47
603.78	793.51
604.13	785.50
604.48	777.50
604.83	769.89
605.18	762.19
605.53	754.74
605.87	747.29
606.22	739.96
606.57	732.54
606.92	725.12
607.27	717.70
607.62	710.41
607.96	703.40
608.31	696.94
608.66	690.28
609.01	683.93
609.36	677.56
609.70	671.18
610.05	664.76
610.40	658.56
610.75	652.30
611.10	646.31
611.44	640.30
611.79	634.48
612.14	628.50
612.49	622.63
612.83	617.08
613.18	611.60
613.53	606.12
613.88	600.75
614.22	595.79
614.57	590.75
614.92	585.86
615.27	581.05
615.61	576.12
615.96	571.29
616.31	566.43
616.65	561.71
617.00	557.11
617.35	552.61
617.70	548.13
618.04	543.77
618.39	539.47
618.74	535.48
619.08	531.42
619.43	527.53
619.78	523.60
620.12	519.58
620.47	515.78
620.82	512.08
621.16	508.45
621.51	504.84
621.85	501.23
622.20	497.66
622.55	494.14
622.89	490.64
623.24	487.31
623.59	484.07
623.93	480.90
624.28	477.84
624.62	474.99
624.97	472.18
625.32	469.28
625.66	466.37
626.01	463.40
626.35	460.61
626.70	457.78
627.04	455.15
627.39	452.51
627.73	449.93
628.08	447.38
628.43	444.85
628.77	442.26
629.12	439.76
629.46	437.39
629.81	435.16
630.15	432.85
630.50	430.57
630.84	428.34
631.19	426.14
631.53	424.08
631.88	421.81
632.22	419.62
632.57	417.75
632.91	415.82
633.26	413.97
633.60	412.13
633.95	410.37
634.29	408.51
634.64	406.68
634.98	404.76
635.32	403.03
635.67	401.47
636.01	399.90
636.36	398.37
636.70	396.92
637.05	395.30
637.39	393.85
637.73	392.39
638.08	391.00
638.42	389.67
638.77	388.19
639.11	386.68
639.45	385.23
639.80	383.74
640.14	382.31
640.49	380.90
640.83	379.48
641.17	378.14
641.52	376.80
641.86	375.52
642.20	374.38
642.55	373.06
642.89	371.74
643.23	370.51
643.58	369.42
643.92	368.16
644.26	367.01
644.61	365.90
644.95	364.74
645.29	363.55
645.64	362.32
645.98	361.22
646.32	360.24
646.66	359.19
647.01	358.15
647.35	357.22
647.69	356.25
648.04	355.36
648.38	354.38
648.72	353.47
649.06	352.54
649.41	351.59
649.75	350.71
650.09	349.85
650.43	348.97
650.78	348.03
651.12	347.18
651.46	346.35
651.80	345.53
652.14	344.74
652.49	344.03
652.83	343.24
653.17	342.44
653.51	341.65
653.85	340.99
654.20	340.27
654.54	339.46
654.88	338.70
655.22	337.99
655.56	337.25
655.90	336.58
656.25	335.91
656.59	335.24
656.93	334.60
657.27	334.03
657.61	333.38
657.95	332.80
658.29	332.17
658.64	331.58
658.98	330.91
659.32	330.28
659.66	329.67
660.00	329.11
660.34	328.56
660.68	327.94
661.02	327.27
661.36	326.63
661.70	326.05
662.05	325.49
662.39	324.93
662.73	324.48
663.07	324.05
663.41	323.58
663.75	323.07
664.09	322.57
664.43	321.95
664.77	321.42
665.11	320.84
665.45	320.33
665.79	319.82
666.13	319.31
666.47	318.79
666.81	318.23
667.15	317.62
667.49	317.15
667.83	316.75
668.17	316.29
668.51	315.90
668.85	315.52
669.19	315.19
669.53	314.68
669.87	314.14
670.21	313.59
670.55	313.08
670.89	312.68
671.23	312.22
671.57	311.81
671.91	311.46
672.25	311.14
672.58	310.82
672.92	310.40
673.26	310.05
673.60	309.72
673.94	309.35
674.28	309.02
674.62	308.66
674.96	308.23
675.30	307.89
675.64	307.46
675.97	307.01
676.31	306.53
676.65	306.14
676.99	305.82
677.33	305.39
677.67	305.00
678.01	304.53
678.34	304.13
678.68	303.76
679.02	303.31
679.36	302.87
679.70	302.41
680.04	302.02
680.37	301.61
680.71	301.21
681.05	300.86
681.39	300.47
681.73	300.02
682.06	299.60
682.40	299.21
682.74	298.86
683.08	298.55
683.42	298.17
683.75	297.83
684.09	297.37
684.43	297.00
684.77	296.60
685.10	296.23
685.44	295.82
685.78	295.40
686.12	295.02
686.45	294.60
686.79	294.17
687.13	293.77
687.46	293.33
687.80	292.92
688.14	292.45
688.48	292.03
688.81	291.61
689.15	291.25
689.49	290.80
689.82	290.36
690.16	289.82
690.50	289.38
690.83	288.93
691.17	288.48
691.51	288.03
691.84	287.64
692.18	287.18
692.52	286.73
692.85	286.30
693.19	285.91
693.52	285.49
693.86	285.04
694.20	284.61
694.53	284.18
694.87	283.71
695.21	283.25
695.54	282.80
695.88	282.33
696.21	281.83
696.55	281.39
696.88	280.93
697.22	280.51
697.56	280.10
697.89	279.62
698.23	279.20
698.56	278.75
698.90	278.34
699.23	277.89
699.57	277.48
699.90	277.05
700.24	276.57
700.58	276.17
700.91	275.80
701.25	275.54
701.58	275.22
701.92	274.88
702.25	274.49
702.59	274.06
702.92	273.68
703.26	273.27
703.59	272.85
703.93	272.57
704.26	272.17
704.60	271.74
704.93	271.32
705.26	270.90
705.60	270.54
705.93	270.08
706.27	269.75
706.60	269.40
706.94	269.08
707.27	268.65
707.61	268.24
707.94	267.82
708.27	267.25
708.61	266.78
708.94	266.34
709.28	265.94
709.61	265.56
709.94	265.21
710.28	264.86
710.61	264.53
710.95	264.01
711.28	263.77
711.61	263.41
711.95	263.11
712.28	262.73
712.61	262.35
712.95	262.10
713.28	261.81
713.61	261.41
713.95	261.01
714.28	260.69
714.61	260.32
714.95	259.98
715.28	259.64
715.61	259.32
715.95	259.02
716.28	258.69
716.61	258.40
716.95	258.07
717.28	257.75
717.61	257.42
717.94	257.12
718.28	256.69
718.61	256.38
718.94	256.04
719.27	255.75
719.61	255.48
719.94	255.15
720.27	254.77
720.60	254.49
720.94	254.20
721.27	253.92
721.60	253.68
721.93	253.39
722.27	253.17
722.60	252.90
722.93	252.58
723.26	252.33
723.59	252.02
723.93	251.78
724.26	251.53
724.59	251.27
724.92	251.03
725.25	250.83
725.59	250.58
725.92	250.36
726.25	250.12
726.58	249.87
726.91	249.61
727.24	249.39
727.57	249.15
727.91	248.87
728.24	248.66
728.57	248.42
728.90	248.21
729.23	247.92
729.56	247.79
729.89	247.58
730.22	247.34
730.55	247.13
730.89	246.90
731.22	246.67
731.55	246.46
731.88	246.26
732.21	246.01
732.54	245.78
732.87	245.58
733.20	245.39
733.53	245.20
733.86	245.02
734.19	244.80
734.52	244.64
734.85	244.59
735.18	244.38
735.51	244.24
735.84	244.05
736.17	243.93
736.50	243.65
736.83	243.68
737.16	243.50
737.49	243.33
737.82	243.14
738.15	242.99
738.48	242.80
738.81	242.61
739.14	242.43
739.47	242.24
739.80	242.06
740.13	241.90
740.46	241.70
740.79	241.50
741.12	241.32
741.45	241.11
741.78	240.83
742.11	240.70
742.44	240.48
742.77	240.33
743.10	240.14
743.43	239.97
743.75	239.61
744.08	239.73
744.41	239.56
744.74	239.39
745.07	239.20
745.40	239.10
745.73	239.03
746.06	238.89
746.39	238.78
746.71	238.63
747.04	238.46
747.37	238.32
747.70	238.21
748.03	238.07
748.36	237.97
748.68	237.84
749.01	237.65
749.34	237.54
749.67	237.41
750.00	237.30
750.33	237.31
750.65	237.20
750.98	236.81
751.31	236.69
751.64	236.59
751.97	236.57
752.29	236.43
752.62	236.21
752.95	236.08
753.28	235.93
753.60	235.80
753.93	235.72
754.26	235.62
754.59	235.44
754.91	235.31
755.24	235.18
755.57	235.06
755.90	234.95
756.22	234.81
756.55	234.67
756.88	234.51
757.20	234.28
757.53	234.12
757.86	234.00
758.19	233.90
758.51	233.79
758.84	233.59
759.17	233.47
759.49	233.39
759.82	233.38
760.15	233.30
760.47	233.20
760.80	233.05
761.13	232.98
761.45	232.89
761.78	232.81
762.11	232.72
762.43	232.61
762.76	232.51
763.08	232.45
763.41	232.38
763.74	232.31
764.06	232.22
764.39	232.15
764.71	232.06
765.04	231.96
765.37	231.86
765.69	231.78
766.02	231.70
766.34	231.61
766.67	231.46
767.00	231.41
767.32	231.45
767.65	231.49
767.97	231.39
768.30	231.34
768.62	231.26
768.95	231.17
769.27	231.10
769.60	231.06
769.92	230.96
770.25	230.86
770.57	230.76
770.90	230.70
771.22	230.62
771.55	230.56
771.87	230.51
772.20	230.45
772.52	230.55
772.85	230.72
773.17	230.66
773.50	230.59
773.82	230.50
774.15	230.35
774.47	230.18
774.80	230.11
775.12	230.05
775.45	229.99
775.77	229.95
776.09	229.92
776.42	229.86
776.74	229.87
777.07	229.82
777.39	229.78
777.72	229.72
778.04	229.70
778.36	229.64
778.69	229.60
779.01	229.57
779.33	229.36
779.66	229.11
779.98	229.06
780.31	229.03
780.63	229.07
780.95	229.06
781.28	229.01
781.60	228.96
781.92	228.92
782.25	228.88
782.57	228.84
782.89	228.79
783.22	228.74
783.54	228.66
783.86	228.64
784.19	228.60
784.51	228.62
784.83	228.56
785.16	228.52
785.48	228.49
785.80	228.45
786.12	228.44
786.45	228.40
786.77	228.38
787.09	228.34
787.42	228.24
787.74	228.20
788.06	228.19
788.38	228.16
788.71	228.11
789.03	228.09
789.35	228.08
789.67	228.03
789.99	228.01
790.32	227.97
790.64	227.96
790.96	228.10
791.28	228.01
791.61	227.98
791.93	227.97
792.25	227.93
792.57	228.03
792.89	227.97
793.21	227.95
793.54	227.91
793.86	227.86
794.18	227.84
794.50	227.79
794.82	227.76
795.14	227.76
795.47	227.77
795.79	227.75
796.11	227.69
796.43	227.66
796.75	227.64
797.07	227.62
797.39	227.58
797.71	227.40
798.04	227.39
798.36	227.38
798.68	227.35
799.00	227.34
799.32	227.23
799.64	227.24
799.96	227.21
800.28	227.23
800.60	227.21
800.92	227.20
801.24	227.17
801.56	227.17
801.89	227.13
802.21	227.11
802.53	227.06
802.85	227.09
803.17	227.15
803.49	227.09
803.81	227.06
804.13	227.02
804.45	226.98
804.77	226.97
805.09	226.95
805.41	226.92
805.73	226.86
806.05	226.80
806.37	226.77
806.69	226.73
807.01	226.70
807.33	226.69
807.65	226.61
807.97	226.67
808.28	226.64
808.60	226.62
808.92	226.57
809.24	226.67
809.56	226.62
809.88	226.53
810.20	226.53
810.52	226.55
810.84	226.51
811.16	226.48
811.48	226.45
811.80	226.50
812.12	226.48
812.43	226.51
812.75	226.51
813.07	226.48
813.39	226.47
813.71	226.43
814.03	226.40
814.35	226.40
814.67	226.31
814.98	226.28
815.30	226.27
815.62	226.23
815.94	226.09
816.26	226.10
816.58	226.06
816.89	226.06
817.21	226.00
817.53	226.01
817.85	226.00
818.17	225.99
818.48	225.90
818.80	225.93
819.12	225.88
819.44	225.84
819.76	225.81
820.07	225.79
820.39	225.78
820.71	225.78
821.03	225.77
821.34	225.75
821.66	225.76
821.98	225.77
822.30	225.75
822.61	225.86
822.93	225.82
823.25	225.81
823.57	225.78
823.88	225.80
824.20	225.78
824.52	225.80
824.83	225.79
825.15	225.76
825.47	225.74
825.79	225.74
826.10	225.73
826.42	225.72
826.74	225.72
827.05	225.71
827.37	225.71
827.69	225.69
828.00	225.69
828.32	225.67
828.64	225.64
828.95	225.74
829.27	225.67
829.58	225.66
829.90	225.68
830.22	225.69
830.53	225.65
830.85	225.62
831.17	225.57
831.48	225.56
831.80	225.57
832.11	225.55
832.43	225.52
832.75	225.51
833.06	225.61
833.38	225.56
833.69	225.55
834.01	225.54
834.32	225.53
834.64	225.50
834.96	225.50
835.27	225.49
835.59	225.42
835.90	225.40
836.22	225.39
836.53	225.35
836.85	225.32
837.16	225.50
837.48	225.50
837.79	225.56
838.11	225.57
838.42	225.56
838.74	225.58
839.05	225.56
839.37	225.55
839.68	225.43
840.00	225.42
840.31	225.44
840.63	225.42
840.94	225.40
841.26	225.38
841.57	225.37
841.88	225.38
842.20	225.35
842.51	225.31
842.83	225.30
843.14	225.46
843.46	225.45
843.77	225.34
844.08	225.32
844.40	225.26
844.71	225.24
845.03	225.22
845.34	225.19
845.65	225.19
845.97	225.19
846.28	225.19
846.60	225.20
846.91	225.17
847.22	225.16
847.54	225.20
847.85	225.20
848.16	225.18
848.48	225.14
848.79	225.21
849.10	225.24
849.42	225.24
849.73	225.07
850.04	225.07
850.36	225.00
850.67	225.03
850.98	225.03
851.30	225.05
851.61	225.04
851.92	225.03
852.23	225.09
852.55	225.09
852.86	225.10
853.17	225.11
853.49	225.15
853.80	225.19
854.11	225.19
854.42	225.21
854.74	225.20
855.05	225.20
855.36	225.10
855.67	225.10
855.99	225.10
856.30	225.32
856.61	225.31
856.92	225.31
857.23	225.31
857.55	225.29
857.86	225.27
858.17	225.30
858.48	225.26
858.79	225.22
859.11	225.23
859.42	225.22
859.73	225.19
860.04	225.17
860.35	225.11
860.66	225.06
860.98	225.04
861.29	225.07
861.60	225.05
861.91	225.10
862.22	225.07
862.53	225.04
862.84	224.82
863.16	224.86
863.47	224.83
863.78	224.80
864.09	224.82
864.40	224.83
864.71	224.83
865.02	224.85
865.33	224.83
865.64	224.79
865.95	224.79
866.27	224.90
866.58	224.88
866.89	224.90
867.20	224.90
867.51	224.87
867.82	224.85
868.13	224.91
868.44	224.86
868.75	224.90
869.06	224.91
869.37	224.93
869.68	224.88
869.99	224.91
870.30	224.92
870.61	224.93
870.92	224.90
871.23	224.89
871.54	224.91
871.85	224.96
872.16	224.98
872.47	224.96
872.78	224.85
873.09	224.87
873.40	224.85
873.71	224.87
874.02	224.88
874.33	224.87
874.64	224.82
874.95	224.86
875.26	224.82
875.56	224.81
875.87	224.79
876.18	224.79
876.49	224.96
876.80	224.94
877.11	224.90
877.42	224.91
877.73	224.91
878.04	224.88
878.35	224.87
878.66	224.87
878.96	224.87
879.27	224.87
879.58	224.85
879.89	224.84
880.20	224.89
880.51	224.88
880.82	224.88
881.12	224.89
881.43	224.85
881.74	224.83
882.05	224.82
882.36	224.83
882.67	224.84
882.97	224.64
883.28	224.63
883.59	224.63
883.90	224.64
884.21	224.66
884.51	224.66
884.82	224.63
885.13	224.62
885.44	224.62
885.74	224.62
886.05	224.61
886.36	224.61
886.67	224.54
886.98	224.64
887.28	224.65
887.59	224.65
887.90	224.66
888.20	224.65
888.51	224.69
888.82	224.66
889.13	224.68
889.43	224.84
889.74	224.83
890.05	224.82
890.35	224.80
890.66	224.77
890.97	224.75
891.28	224.73
891.58	224.73
891.89	224.73
892.20	224.72
892.50	224.70
892.81	224.69
893.12	224.69
893.42	224.60
893.73	224.60
894.04	224.60
894.34	224.61
894.65	224.61
894.95	224.59
895.26	224.59
895.57	224.67
895.87	224.48
896.18	224.52
896.48	224.53
896.79	224.53
897.10	224.56
897.40	224.57
897.71	224.60
898.01	224.58
898.32	224.60
898.63	224.60
898.93	224.61
899.24	224.62
899.54	224.61
899.85	224.61
900.15	224.60
900.46	224.60
900.76	224.61
901.07	224.61
901.38	224.60
901.68	224.62
901.99	224.53
902.29	224.55
902.60	224.53
902.90	224.52
903.21	224.51
903.51	224.49
903.82	224.53
904.12	224.52
904.43	224.53
904.73	224.52
905.03	224.53
905.34	224.71
905.64	224.70
905.95	224.70
906.25	224.70
906.56	224.69
906.86	224.69
907.17	224.67
907.47	224.68
907.77	224.66
908.08	224.62
908.38	224.63
908.69	224.65
908.99	224.68
909.30	224.69
909.60	224.69
909.90	224.69
910.21	224.63
910.51	224.61
910.81	224.61
911.12	224.62
911.42	224.62
911.73	224.43
912.03	224.44
912.33	224.48
912.64	224.46
912.94	224.45
913.24	224.42
913.55	224.41
913.85	224.39
914.15	224.43
914.46	224.45
914.76	224.43
915.06	224.42
915.37	224.38
915.67	224.37
915.97	224.37
916.27	224.35
916.58	224.36
916.88	224.36
917.18	224.34
917.49	224.47
917.79	224.46
918.09	224.48
918.39	224.53
918.70	224.51
919.00	224.53
919.30	224.61
919.60	224.61
919.91	224.59
920.21	224.60
920.51	224.55
920.81	224.54
921.12	224.58
921.42	224.57
921.72	224.58
922.02	224.59
922.32	224.62
922.63	224.62
922.93	224.73
923.23	224.73
923.53	224.72
923.83	224.59
924.13	224.61
924.44	224.60
924.74	224.62
925.04	224.66
925.34	224.65
925.64	224.58
925.94	224.58
926.24	224.69
926.55	224.67
926.85	224.69
927.15	224.69
927.45	224.69
927.75	224.69
928.05	224.69
928.35	224.67
928.65	224.70
928.95	224.71
929.26	224.62
929.56	224.66
929.86	224.68
930.16	224.67
930.46	224.66
930.76	224.66
931.06	224.57
931.36	224.52
931.66	224.55
931.96	224.58
932.26	224.59
932.56	224.50
932.86	224.52
933.16	224.52
933.46	224.51
933.76	224.48
934.06	224.51
934.36	224.57
934.66	224.57
934.96	224.54
935.26	224.54
935.56	224.57
935.86	224.52
936.16	224.49
936.46	224.48
936.76	224.46
937.06	224.44
937.36	224.46
937.66	224.47
937.96	224.45
938.26	224.41
938.56	224.40
938.86	224.41
939.16	224.45
939.46	224.46
939.76	224.47
940.06	224.47
940.35	224.44
940.65	224.35
940.95	224.37
941.25	224.32
941.55	224.30
941.85	224.29
942.15	224.33
942.45	224.39
942.75	224.38
943.04	224.39
943.34	224.43
943.64	224.41
943.94	224.39
944.24	224.38
944.54	224.40
944.84	224.39
945.13	224.36
945.43	224.33
945.73	224.31
946.03	224.29
946.33	224.27
946.62	224.26
946.92	224.26
947.22	224.27
947.52	224.29
947.82	224.31
948.11	224.29
948.41	224.24
948.71	224.19
949.01	224.20
949.31	224.19
949.60	224.17
949.90	224.20
950.20	224.19
950.50	224.18
950.79	224.17
951.09	224.20
951.39	224.20
951.69	224.19
951.98	224.22
952.28	224.23
952.58	224.23
952.87	224.24
953.17	224.26
953.47	224.23
953.76	224.23
954.06	224.20
954.36	224.18
954.66	224.18
954.95	224.22
955.25	224.23
955.55	224.25
955.84	224.22
956.14	224.23
956.44	224.24
956.73	224.22
957.03	224.23
957.32	224.23
957.62	224.22
957.92	224.25
958.21	224.23
958.51	224.44
958.81	224.46
959.10	224.48
959.40	224.52
959.69	224.54
959.99	224.57
960.29	224.57
960.58	224.57
960.88	224.64
961.17	224.62
961.47	224.63
961.76	224.61
962.06	224.65
962.36	224.63
962.65	224.63
962.95	224.65
963.24	224.63
963.54	224.63
963.83	224.65
964.13	224.63
964.42	224.61
964.72	224.46
965.01	224.46
965.31	224.44
965.60	224.39
965.90	224.50
966.19	224.46
966.49	224.47
966.78	224.46
967.08	224.44
967.37	224.44
967.67	224.41
967.96	224.44
968.26	224.43
968.55	224.45
968.85	224.44
969.14	224.44
969.43	224.44
969.73	224.43
970.02	224.42
970.32	224.41
970.61	224.38
970.91	224.33
971.20	224.31
971.49	224.29
971.79	224.31
972.08	224.18
972.38	224.20
972.67	224.19
972.96	224.22
973.26	224.18
973.55	224.24
973.85	224.23
974.14	224.21
974.43	224.22
974.73	224.19
975.02	224.18
975.31	224.18
975.61	224.18
975.90	224.16
976.19	224.15
976.49	224.16
976.78	224.18
977.07	224.17
977.37	224.19
977.66	224.21
977.95	224.18
978.24	224.20
978.54	224.24
978.83	224.22
979.12	224.21
979.42	224.21
979.71	224.16
980.00	224.16
980.29	224.17
980.59	224.14
980.88	224.19
981.17	224.18
981.46	224.19
981.76	224.19
982.05	224.24
982.34	224.26
982.63	224.25
982.93	224.26
983.22	224.30
983.51	224.31
983.80	224.33
984.09	224.36
984.39	224.34
984.68	224.31
984.97	224.33
985.26	224.31
985.55	224.33
985.85	224.30
986.14	224.33
986.43	224.35
986.72	224.35
987.01	224.28
987.30	224.29
987.59	224.27
987.89	224.28
988.18	224.23
988.47	224.21
988.76	224.20
989.05	224.19
989.34	224.16
989.63	224.20
989.92	224.18
990.22	224.15
990.51	224.15
990.80	224.14
991.09	224.15
991.38	224.18
991.67	224.16
991.96	224.15
992.25	224.15
992.54	224.11
992.83	224.12
993.12	224.12
993.41	224.15
993.70	224.23
993.99	224.26
994.28	224.28
994.58	224.31
994.87	224.29
995.16	224.29
995.45	224.28
995.74	224.21
996.03	224.24
996.32	224.27
996.61	224.30
996.90	224.30
997.19	224.29
997.48	224.29
997.77	224.28
998.06	224.29
998.34	224.27
998.63	224.28
998.92	224.29
999.21	224.32
999.50	224.32
999.79	224.25
1000.08	224.24
1000.37	224.24
1000.66	224.22
1000.95	224.27
1001.24	224.28
1001.53	224.30
1001.82	224.30
1002.11	224.26
1002.40	224.27
1002.68	224.31
1002.97	224.44
1003.26	224.42
1003.55	224.39
1003.84	224.41
1004.13	224.47
1004.42	224.47
1004.71	224.46
1004.99	224.45
1005.28	224.48
1005.57	224.47
1005.86	224.45
1006.15	224.44
1006.44	224.41
1006.72	224.44
1007.01	224.40
1007.30	224.40
1007.59	224.38
1007.88	224.38
1008.17	224.39
1008.45	224.35
1008.74	224.27
1009.03	224.18
1009.32	224.19
1009.60	224.19
1009.89	224.17
1010.18	224.09
1010.47	224.08
1010.76	224.08
1011.04	224.08
1011.33	224.08
1011.62	224.09
1011.91	224.10
1012.19	224.11
1012.48	224.12
1012.77	224.11
1013.05	224.18
1013.34	224.17
1013.63	224.17
1013.92	224.18
1014.20	224.16
1014.49	224.17
1014.78	224.19
1015.06	224.13
1015.35	224.13
1015.64	224.16
1015.92	224.19
1016.21	224.20
1016.50	224.20
1016.78	224.23
1017.07	224.24
1017.36	224.21
1017.64	224.18
1017.93	224.19
1018.22	224.17
1018.50	224.17
1018.79	224.16
1019.08	224.10
1019.36	224.10
1019.65	224.09
1019.93	224.14
1020.22	224.17
1020.51	224.26
1020.79	224.24
1021.08	223.91
1021.36	223.84
1021.65	224.11
1021.94	224.07
1022.22	224.22
1022.51	223.79
1022.79	225.04
1023.08	224.44
1023.36	226.31
1023.65	223.74
>>>>>End Processed Spectral Data<<<<<
