SpectraSuite Data File
++++++++++++++++++++++++++++++++++++
Date: Tue Oct 06 12:56:10 EDT 2015
User: lab3
Dark Spectrum Present: No
Reference Spectrum Present: No
Number of Sampled Component Spectra: 1
Spectrometers: USB2E7196
Integration Time (usec): 66000 (USB2E7196)
Spectra Averaged: 1000 (USB2E7196)
Boxcar Smoothing: 10 (USB2E7196)
Correct for Electrical Dark: No (USB2E7196)
Strobe/Lamp Enabled: No (USB2E7196)
Correct for Detector Non-linearity: No (USB2E7196)
Correct for Stray Light: No (USB2E7196)
Number of Pixels in Processed Spectrum: 2048
>>>>>Begin Processed Spectral Data<<<<<
339.09	0.00
339.48	216.95
339.86	218.44
340.24	219.90
340.63	221.34
341.01	225.00
341.39	223.95
341.78	225.46
342.16	226.59
342.54	227.00
342.93	215.38
343.31	226.26
343.69	226.80
344.07	227.26
344.46	227.71
344.84	228.12
345.22	228.33
345.60	228.60
345.99	228.81
346.37	228.95
346.75	229.07
347.13	229.16
347.52	229.25
347.90	229.37
348.28	229.43
348.66	229.52
349.05	229.51
349.43	229.57
349.81	229.65
350.19	229.72
350.57	229.81
350.96	229.91
351.34	230.02
351.72	230.13
352.10	230.25
352.48	230.33
352.87	230.38
353.25	230.45
353.63	230.50
354.01	230.57
354.39	230.67
354.77	230.76
355.15	230.88
355.54	230.92
355.92	230.93
356.30	231.00
356.68	231.17
357.06	231.26
357.44	231.31
357.82	231.36
358.20	231.57
358.58	231.62
358.97	231.69
359.35	231.78
359.73	231.88
360.11	231.93
360.49	231.97
360.87	232.02
361.25	232.09
361.63	232.20
362.01	232.25
362.39	232.27
362.77	232.31
363.15	232.32
363.53	232.36
363.91	232.40
364.29	232.42
364.67	232.28
365.05	232.30
365.43	232.33
365.81	232.36
366.19	232.32
366.57	232.40
366.95	232.39
367.33	232.35
367.71	232.34
368.09	232.37
368.47	232.37
368.85	232.36
369.23	232.38
369.61	232.30
369.99	232.33
370.37	232.32
370.75	232.44
371.13	232.41
371.51	232.35
371.89	232.33
372.27	232.31
372.65	232.30
373.03	232.26
373.41	232.22
373.78	232.15
374.16	232.02
374.54	231.92
374.92	231.86
375.30	231.83
375.68	231.74
376.06	231.70
376.44	231.64
376.82	231.60
377.19	231.54
377.57	231.49
377.95	231.38
378.33	231.33
378.71	231.11
379.09	231.07
379.47	231.05
379.84	230.97
380.22	230.90
380.60	230.82
380.98	230.78
381.36	230.73
381.73	230.67
382.11	230.66
382.49	230.63
382.87	230.56
383.25	230.50
383.62	230.67
384.00	230.60
384.38	230.58
384.76	230.57
385.13	230.59
385.51	230.55
385.89	230.51
386.27	230.48
386.64	230.48
387.02	230.44
387.40	230.40
387.78	230.38
388.15	230.37
388.53	230.35
388.91	230.32
389.29	230.28
389.66	230.30
390.04	230.26
390.42	230.27
390.79	230.27
391.17	230.27
391.55	230.08
391.92	230.06
392.30	230.07
392.68	230.02
393.05	230.01
393.43	230.02
393.81	230.03
394.18	230.01
394.56	230.01
394.94	230.06
395.31	230.07
395.69	230.14
396.06	230.18
396.44	230.22
396.82	230.25
397.19	230.37
397.57	230.39
397.95	230.45
398.32	230.45
398.70	230.52
399.07	230.62
399.45	230.67
399.82	230.75
400.20	230.81
400.58	230.90
400.95	230.91
401.33	231.04
401.70	231.27
402.08	231.42
402.45	231.55
402.83	231.73
403.20	231.89
403.58	232.01
403.95	232.21
404.33	232.43
404.71	232.65
405.08	232.96
405.46	233.21
405.83	233.48
406.21	233.77
406.58	234.09
406.96	234.41
407.33	234.77
407.70	235.18
408.08	235.73
408.45	236.23
408.83	236.76
409.20	237.25
409.58	237.69
409.95	238.29
410.33	238.94
410.70	239.55
411.08	240.29
411.45	241.06
411.82	241.86
412.20	242.75
412.57	243.81
412.95	244.66
413.32	245.75
413.69	246.89
414.07	248.10
414.44	249.42
414.82	250.77
415.19	252.35
415.56	253.96
415.94	255.64
416.31	257.50
416.68	259.39
417.06	261.57
417.43	263.61
417.81	265.96
418.18	268.37
418.55	270.98
418.93	273.72
419.30	276.57
419.67	279.59
420.04	282.70
420.42	285.96
420.79	289.71
421.16	293.51
421.54	297.34
421.91	301.36
422.28	305.52
422.66	310.01
423.03	314.27
423.40	318.74
423.77	323.51
424.15	328.41
424.52	333.49
424.89	339.00
425.26	344.44
425.64	349.51
426.01	355.19
426.38	361.01
426.75	366.96
427.13	373.05
427.50	379.43
427.87	386.04
428.24	392.67
428.61	399.05
428.99	405.91
429.36	413.50
429.73	420.75
430.10	427.96
430.47	435.35
430.85	443.01
431.22	451.14
431.59	459.49
431.96	467.63
432.33	476.67
432.70	485.28
433.08	495.51
433.45	505.15
433.82	514.58
434.19	525.16
434.56	535.55
434.93	545.63
435.30	555.64
435.68	567.00
436.05	578.09
436.42	589.20
436.79	599.34
437.16	610.28
437.53	622.08
437.90	633.91
438.27	645.40
438.64	657.78
439.01	669.07
439.38	679.52
439.75	689.57
440.13	701.03
440.50	711.91
440.87	720.55
441.24	730.05
441.61	740.51
441.98	748.16
442.35	757.27
442.72	766.63
443.09	775.60
443.46	781.53
443.83	785.96
444.20	789.60
444.57	794.95
444.94	798.22
445.31	801.42
445.68	804.20
446.05	806.32
446.42	806.09
446.79	805.67
447.16	805.26
447.53	805.05
447.90	801.78
448.27	798.57
448.64	793.54
449.01	790.22
449.37	783.13
449.74	776.77
450.11	768.47
450.48	759.24
450.85	749.92
451.22	741.81
451.59	733.96
451.96	726.94
452.33	716.68
452.70	707.49
453.07	696.36
453.43	685.26
453.80	674.45
454.17	664.14
454.54	654.50
454.91	643.61
455.28	633.24
455.65	623.42
456.02	613.17
456.38	604.89
456.75	594.16
457.12	585.53
457.49	576.80
457.86	568.59
458.23	561.40
458.59	553.43
458.96	545.29
459.33	538.09
459.70	530.77
460.07	525.11
460.43	518.46
460.80	512.25
461.17	506.79
461.54	500.97
461.91	495.49
462.27	489.95
462.64	485.43
463.01	480.24
463.38	475.08
463.74	470.38
464.11	466.26
464.48	462.54
464.85	458.48
465.21	455.36
465.58	451.91
465.95	447.97
466.32	444.82
466.68	441.72
467.05	438.62
467.42	435.59
467.78	432.36
468.15	429.42
468.52	427.25
468.88	424.41
469.25	421.78
469.62	419.69
469.98	417.40
470.35	415.36
470.72	413.54
471.08	411.67
471.45	410.10
471.82	408.31
472.18	406.44
472.55	405.23
472.92	403.74
473.28	402.58
473.65	401.32
474.02	400.19
474.38	399.22
474.75	398.62
475.11	397.79
475.48	397.41
475.85	396.98
476.21	396.76
476.58	396.61
476.94	396.80
477.31	396.87
477.67	397.02
478.04	397.33
478.41	397.73
478.77	398.33
479.14	398.68
479.50	399.44
479.87	400.41
480.23	401.39
480.60	402.30
480.96	403.23
481.33	404.63
481.69	405.99
482.06	407.36
482.42	408.65
482.79	410.19
483.15	412.03
483.52	414.12
483.88	416.12
484.25	418.25
484.61	420.47
484.98	422.83
485.34	425.52
485.71	428.28
486.07	431.25
486.44	434.14
486.80	437.44
487.17	440.79
487.53	444.46
487.90	448.28
488.26	452.49
488.62	456.86
488.99	461.27
489.35	465.95
489.72	470.97
490.08	476.23
490.44	481.62
490.81	487.14
491.17	492.78
491.54	498.80
491.90	505.00
492.26	511.59
492.63	518.49
492.99	525.67
493.36	533.12
493.72	540.96
494.08	548.96
494.45	557.35
494.81	566.14
495.17	575.13
495.54	584.62
495.90	594.46
496.26	604.60
496.63	614.97
496.99	625.66
497.35	636.81
497.72	648.31
498.08	660.24
498.44	672.44
498.80	685.43
499.17	698.73
499.53	712.45
499.89	726.52
500.26	740.74
500.62	755.24
500.98	770.40
501.34	785.75
501.71	801.80
502.07	818.13
502.43	834.90
502.79	851.79
503.16	869.13
503.52	886.74
503.88	904.83
504.24	923.36
504.60	942.10
504.97	961.31
505.33	980.97
505.69	1001.58
506.05	1022.22
506.41	1042.81
506.78	1063.68
507.14	1085.36
507.50	1107.49
507.86	1130.03
508.22	1152.65
508.59	1175.12
508.95	1198.44
509.31	1222.25
509.67	1246.68
510.03	1270.89
510.39	1295.55
510.75	1320.22
511.12	1345.00
511.48	1369.78
511.84	1394.68
512.20	1420.04
512.56	1445.76
512.92	1471.29
513.28	1496.53
513.64	1522.13
514.00	1547.78
514.37	1573.61
514.73	1599.17
515.09	1624.27
515.45	1649.61
515.81	1675.06
516.17	1700.60
516.53	1725.44
516.89	1750.23
517.25	1775.10
517.61	1799.91
517.97	1824.87
518.33	1849.38
518.69	1873.80
519.05	1898.33
519.41	1922.81
519.77	1947.26
520.13	1971.35
520.49	1995.30
520.85	2019.29
521.21	2043.11
521.57	2067.07
521.93	2090.08
522.29	2113.48
522.65	2136.45
523.01	2159.18
523.37	2181.06
523.73	2203.36
524.09	2225.83
524.45	2248.28
524.81	2269.80
525.17	2291.16
525.53	2311.82
525.89	2332.78
526.25	2353.31
526.61	2372.78
526.97	2392.37
527.33	2411.36
527.68	2429.61
528.04	2447.21
528.40	2463.77
528.76	2480.84
529.12	2496.80
529.48	2513.19
529.84	2528.34
530.20	2544.48
530.56	2559.47
530.91	2574.47
531.27	2588.53
531.63	2601.61
531.99	2614.35
532.35	2625.65
532.71	2636.98
533.07	2648.53
533.42	2658.66
533.78	2669.46
534.14	2680.39
534.50	2690.00
534.86	2699.72
535.21	2707.53
535.57	2715.62
535.93	2724.07
536.29	2731.34
536.65	2738.71
537.00	2744.04
537.36	2749.81
537.72	2753.85
538.08	2757.68
538.44	2760.61
538.79	2763.90
539.15	2766.49
539.51	2768.47
539.87	2771.05
540.22	2771.61
540.58	2772.81
540.94	2773.36
541.29	2772.66
541.65	2770.49
542.01	2768.36
542.37	2765.23
542.72	2763.81
543.08	2760.90
543.44	2757.80
543.79	2753.00
544.15	2748.15
544.51	2743.96
544.87	2737.80
545.22	2731.17
545.58	2724.84
545.94	2719.27
546.29	2711.78
546.65	2703.71
547.01	2695.79
547.36	2687.38
547.72	2678.99
548.07	2669.30
548.43	2659.65
548.79	2648.78
549.14	2638.92
549.50	2628.84
549.86	2618.25
550.21	2605.83
550.57	2594.70
550.92	2581.91
551.28	2569.79
551.64	2557.91
551.99	2546.04
552.35	2534.27
552.70	2522.22
553.06	2510.50
553.41	2497.51
553.77	2484.39
554.13	2471.52
554.48	2457.75
554.84	2443.61
555.19	2430.36
555.55	2416.27
555.90	2402.25
556.26	2389.25
556.61	2375.55
556.97	2360.89
557.32	2346.57
557.68	2332.33
558.03	2317.64
558.39	2303.66
558.74	2289.91
559.10	2274.16
559.45	2259.04
559.81	2244.57
560.16	2229.82
560.52	2214.69
560.87	2200.44
561.23	2185.65
561.58	2171.11
561.94	2155.96
562.29	2141.00
562.64	2125.80
563.00	2110.81
563.35	2096.50
563.71	2081.85
564.06	2066.86
564.42	2052.39
564.77	2038.02
565.12	2024.12
565.48	2009.95
565.83	1995.51
566.19	1981.19
566.54	1967.34
566.89	1952.27
567.25	1936.75
567.60	1922.45
567.96	1907.53
568.31	1892.06
568.66	1877.50
569.02	1862.96
569.37	1848.58
569.72	1834.41
570.08	1820.28
570.43	1805.98
570.78	1790.94
571.14	1775.88
571.49	1761.22
571.84	1747.32
572.20	1732.08
572.55	1717.09
572.90	1701.63
573.26	1686.25
573.61	1670.57
573.96	1655.53
574.31	1641.11
574.67	1627.18
575.02	1612.30
575.37	1597.21
575.72	1582.02
576.08	1567.19
576.43	1552.43
576.78	1537.72
577.13	1523.14
577.49	1508.43
577.84	1493.79
578.19	1479.31
578.54	1464.90
578.90	1450.33
579.25	1435.32
579.60	1421.46
579.95	1407.53
580.30	1393.80
580.66	1380.14
581.01	1366.65
581.36	1352.95
581.71	1339.22
582.06	1325.54
582.42	1312.08
582.77	1299.04
583.12	1286.21
583.47	1273.26
583.82	1260.42
584.17	1247.53
584.53	1234.74
584.88	1222.37
585.23	1209.72
585.58	1197.31
585.93	1184.98
586.28	1173.25
586.63	1161.42
586.98	1149.47
587.34	1137.85
587.69	1126.07
588.04	1114.59
588.39	1103.28
588.74	1091.92
589.09	1080.91
589.44	1069.40
589.79	1058.43
590.14	1047.57
590.49	1036.87
590.84	1026.37
591.19	1015.94
591.54	1005.59
591.89	994.96
592.25	984.40
592.60	973.89
592.95	963.62
593.30	953.36
593.65	943.07
594.00	933.01
594.35	923.65
594.70	913.82
595.05	904.63
595.40	895.27
595.75	885.76
596.10	876.72
596.45	867.56
596.80	858.80
597.15	850.02
597.50	841.27
597.85	832.84
598.19	824.35
598.54	815.91
598.89	807.59
599.24	799.73
599.59	791.95
599.94	784.63
600.29	777.08
600.64	769.65
600.99	762.16
601.34	754.91
601.69	747.06
602.04	739.84
602.39	732.73
602.74	725.79
603.08	718.96
603.43	712.15
603.78	705.46
604.13	698.89
604.48	692.31
604.83	685.98
605.18	679.62
605.53	673.39
605.87	667.01
606.22	660.94
606.57	654.79
606.92	648.57
607.27	642.46
607.62	636.74
607.96	631.11
608.31	625.75
608.66	620.22
609.01	615.00
609.36	609.95
609.70	604.79
610.05	599.61
610.40	594.54
610.75	589.45
611.10	584.68
611.44	579.81
611.79	575.09
612.14	570.33
612.49	565.55
612.83	561.01
613.18	556.72
613.53	552.42
613.88	548.13
614.22	544.04
614.57	539.88
614.92	535.72
615.27	531.69
615.61	527.69
615.96	523.82
616.31	519.93
616.65	516.02
617.00	512.23
617.35	508.57
617.70	505.01
618.04	501.57
618.39	498.04
618.74	494.68
619.08	491.23
619.43	487.88
619.78	484.67
620.12	481.49
620.47	478.43
620.82	475.37
621.16	472.41
621.51	469.55
621.85	466.74
622.20	464.01
622.55	461.25
622.89	458.53
623.24	455.96
623.59	453.41
623.93	450.94
624.28	448.53
624.62	446.32
624.97	444.09
625.32	441.71
625.66	439.35
626.01	437.03
626.35	434.90
626.70	432.72
627.04	430.71
627.39	428.57
627.73	426.51
628.08	424.55
628.43	422.63
628.77	420.70
629.12	418.87
629.46	416.99
629.81	415.24
630.15	413.43
630.50	411.63
630.84	409.90
631.19	408.24
631.53	406.65
631.88	404.85
632.22	403.15
632.57	401.78
632.91	400.39
633.26	399.06
633.60	397.66
633.95	396.33
634.29	394.87
634.64	393.51
634.98	392.00
635.32	390.67
635.67	389.43
636.01	388.15
636.36	386.93
636.70	385.85
637.05	384.62
637.39	383.53
637.73	382.44
638.08	381.38
638.42	380.31
638.77	379.13
639.11	377.95
639.45	376.83
639.80	375.65
640.14	374.52
640.49	373.37
640.83	372.28
641.17	371.19
641.52	370.14
641.86	369.15
642.20	368.32
642.55	367.28
642.89	366.27
643.23	365.28
643.58	364.41
643.92	363.38
644.26	362.42
644.61	361.53
644.95	360.60
645.29	359.68
645.64	358.72
645.98	357.83
646.32	357.05
646.66	356.18
647.01	355.30
647.35	354.51
647.69	353.70
648.04	352.91
648.38	352.10
648.72	351.35
649.06	350.61
649.41	349.80
649.75	349.04
650.09	348.33
650.43	347.60
650.78	346.83
651.12	346.10
651.46	345.40
651.80	344.68
652.14	343.98
652.49	343.29
652.83	342.59
653.17	341.91
653.51	341.24
653.85	340.64
654.20	340.03
654.54	339.32
654.88	338.66
655.22	338.02
655.56	337.33
655.90	336.64
656.25	335.98
656.59	335.33
656.93	334.76
657.27	334.21
657.61	333.57
657.95	332.98
658.29	332.39
658.64	331.88
658.98	331.29
659.32	330.70
659.66	330.14
660.00	329.60
660.34	329.04
660.68	328.45
661.02	327.82
661.36	327.23
661.70	326.69
662.05	326.17
662.39	325.69
662.73	325.28
663.07	324.87
663.41	324.39
663.75	323.86
664.09	323.32
664.43	322.73
664.77	322.26
665.11	321.69
665.45	321.18
665.79	320.61
666.13	320.06
666.47	319.52
666.81	318.95
667.15	318.38
667.49	317.91
667.83	317.49
668.17	317.06
668.51	316.61
668.85	316.19
669.19	315.81
669.53	315.28
669.87	314.78
670.21	314.30
670.55	313.84
670.89	313.50
671.23	313.08
671.57	312.67
671.91	312.27
672.25	311.90
672.58	311.54
672.92	311.09
673.26	310.71
673.60	310.34
673.94	309.98
674.28	309.62
674.62	309.24
674.96	308.78
675.30	308.38
675.64	307.98
675.97	307.54
676.31	307.05
676.65	306.61
676.99	306.26
677.33	305.80
677.67	305.37
678.01	304.82
678.34	304.38
678.68	303.97
679.02	303.51
679.36	303.08
679.70	302.61
680.04	302.18
680.37	301.75
680.71	301.34
681.05	300.93
681.39	300.50
681.73	300.03
682.06	299.56
682.40	299.14
682.74	298.75
683.08	298.41
683.42	297.98
683.75	297.57
684.09	297.05
684.43	296.61
684.77	296.17
685.10	295.78
685.44	295.39
685.78	294.98
686.12	294.58
686.45	294.14
686.79	293.69
687.13	293.30
687.46	292.85
687.80	292.42
688.14	291.93
688.48	291.49
688.81	291.07
689.15	290.73
689.49	290.27
689.82	289.81
690.16	289.28
690.50	288.85
690.83	288.42
691.17	287.97
691.51	287.55
691.84	287.15
692.18	286.73
692.52	286.26
692.85	285.84
693.19	285.48
693.52	285.08
693.86	284.68
694.20	284.26
694.53	283.86
694.87	283.40
695.21	283.00
695.54	282.59
695.88	282.14
696.21	281.64
696.55	281.23
696.88	280.81
697.22	280.41
697.56	280.03
697.89	279.57
698.23	279.17
698.56	278.73
698.90	278.33
699.23	277.89
699.57	277.50
699.90	277.06
700.24	276.57
700.58	276.16
700.91	275.81
701.25	275.57
701.58	275.25
701.92	274.93
702.25	274.56
702.59	274.17
702.92	273.79
703.26	273.41
703.59	273.02
703.93	272.76
704.26	272.40
704.60	271.98
704.93	271.60
705.26	271.20
705.60	270.88
705.93	270.44
706.27	270.12
706.60	269.79
706.94	269.48
707.27	269.07
707.61	268.70
707.94	268.30
708.27	267.77
708.61	267.31
708.94	266.92
709.28	266.56
709.61	266.19
709.94	265.88
710.28	265.57
710.61	265.28
710.95	264.79
711.28	264.58
711.61	264.27
711.95	263.99
712.28	263.67
712.61	263.31
712.95	263.10
713.28	262.85
713.61	262.50
713.95	262.14
714.28	261.87
714.61	261.54
714.95	261.24
715.28	260.92
715.61	260.65
715.95	260.37
716.28	260.07
716.61	259.80
716.95	259.47
717.28	259.16
717.61	258.84
717.94	258.57
718.28	258.16
718.61	257.86
718.94	257.55
719.27	257.28
719.61	257.05
719.94	256.74
720.27	256.39
720.60	256.14
720.94	255.88
721.27	255.63
721.60	255.40
721.93	255.13
722.27	254.95
722.60	254.72
722.93	254.43
723.26	254.20
723.59	253.93
723.93	253.74
724.26	253.53
724.59	253.28
724.92	253.07
725.25	252.90
725.59	252.70
725.92	252.52
726.25	252.30
726.58	252.07
726.91	251.84
727.24	251.65
727.57	251.42
727.91	251.18
728.24	251.00
728.57	250.78
728.90	250.61
729.23	250.34
729.56	250.22
729.89	250.03
730.22	249.82
730.55	249.62
730.89	249.41
731.22	249.20
731.55	249.01
731.88	248.82
732.21	248.60
732.54	248.38
732.87	248.18
733.20	248.01
733.53	247.83
733.86	247.66
734.19	247.45
734.52	247.30
734.85	247.26
735.18	247.06
735.51	246.96
735.84	246.80
736.17	246.69
736.50	246.42
736.83	246.46
737.16	246.32
737.49	246.18
737.82	246.01
738.15	245.87
738.48	245.71
738.81	245.55
739.14	245.39
739.47	245.23
739.80	245.07
740.13	244.94
740.46	244.76
740.79	244.59
741.12	244.45
741.45	244.27
741.78	244.02
742.11	243.92
742.44	243.72
742.77	243.58
743.10	243.41
743.43	243.27
743.75	242.94
744.08	243.05
744.41	242.89
744.74	242.75
745.07	242.58
745.40	242.47
745.73	242.41
746.06	242.28
746.39	242.18
746.71	242.03
747.04	241.88
747.37	241.75
747.70	241.65
748.03	241.52
748.36	241.42
748.68	241.30
749.01	241.14
749.34	241.02
749.67	240.92
750.00	240.82
750.33	240.83
750.65	240.74
750.98	240.37
751.31	240.26
751.64	240.18
751.97	240.16
752.29	240.02
752.62	239.83
752.95	239.71
753.28	239.56
753.60	239.44
753.93	239.38
754.26	239.30
754.59	239.15
754.91	239.03
755.24	238.91
755.57	238.81
755.90	238.70
756.22	238.57
756.55	238.41
756.88	238.27
757.20	238.06
757.53	237.90
757.86	237.81
758.19	237.73
758.51	237.63
758.84	237.45
759.17	237.33
759.49	237.24
759.82	237.24
760.15	237.18
760.47	237.09
760.80	236.95
761.13	236.87
761.45	236.79
761.78	236.71
762.11	236.64
762.43	236.54
762.76	236.47
763.08	236.42
763.41	236.36
763.74	236.31
764.06	236.22
764.39	236.16
764.71	236.07
765.04	235.97
765.37	235.87
765.69	235.80
766.02	235.74
766.34	235.65
766.67	235.51
767.00	235.47
767.32	235.49
767.65	235.52
767.97	235.45
768.30	235.39
768.62	235.32
768.95	235.23
769.27	235.16
769.60	235.12
769.92	235.02
770.25	234.92
770.57	234.83
770.90	234.78
771.22	234.70
771.55	234.64
771.87	234.61
772.20	234.57
772.52	234.67
772.85	234.82
773.17	234.77
773.50	234.71
773.82	234.62
774.15	234.50
774.47	234.34
774.80	234.27
775.12	234.21
775.45	234.16
775.77	234.12
776.09	234.10
776.42	234.05
776.74	234.06
777.07	234.01
777.39	233.98
777.72	233.92
778.04	233.90
778.36	233.85
778.69	233.82
779.01	233.77
779.33	233.58
779.66	233.34
779.98	233.30
780.31	233.27
780.63	233.31
780.95	233.31
781.28	233.26
781.60	233.21
781.92	233.18
782.25	233.14
782.57	233.10
782.89	233.04
783.22	232.99
783.54	232.92
783.86	232.91
784.19	232.87
784.51	232.90
784.83	232.85
785.16	232.81
785.48	232.78
785.80	232.75
786.12	232.73
786.45	232.69
786.77	232.66
787.09	232.63
787.42	232.52
787.74	232.50
788.06	232.49
788.38	232.47
788.71	232.42
789.03	232.39
789.35	232.38
789.67	232.35
789.99	232.33
790.32	232.28
790.64	232.27
790.96	232.39
791.28	232.29
791.61	232.26
791.93	232.24
792.25	232.19
792.57	232.28
792.89	232.23
793.21	232.22
793.54	232.19
793.86	232.14
794.18	232.13
794.50	232.06
794.82	232.03
795.14	232.03
795.47	232.05
795.79	232.04
796.11	231.98
796.43	231.94
796.75	231.92
797.07	231.91
797.39	231.87
797.71	231.72
798.04	231.72
798.36	231.71
798.68	231.68
799.00	231.68
799.32	231.58
799.64	231.59
799.96	231.55
800.28	231.56
800.60	231.54
800.92	231.53
801.24	231.51
801.56	231.50
801.89	231.46
802.21	231.44
802.53	231.39
802.85	231.41
803.17	231.48
803.49	231.43
803.81	231.39
804.13	231.37
804.45	231.32
804.77	231.33
805.09	231.31
805.41	231.27
805.73	231.22
806.05	231.16
806.37	231.13
806.69	231.11
807.01	231.08
807.33	231.07
807.65	230.99
807.97	231.05
808.28	231.03
808.60	231.02
808.92	230.97
809.24	231.08
809.56	231.04
809.88	230.97
810.20	230.96
810.52	230.97
810.84	230.93
811.16	230.90
811.48	230.87
811.80	230.92
812.12	230.90
812.43	230.94
812.75	230.94
813.07	230.92
813.39	230.90
813.71	230.88
814.03	230.85
814.35	230.85
814.67	230.76
814.98	230.74
815.30	230.72
815.62	230.70
815.94	230.56
816.26	230.57
816.58	230.52
816.89	230.53
817.21	230.48
817.53	230.48
817.85	230.49
818.17	230.47
818.48	230.39
818.80	230.42
819.12	230.37
819.44	230.34
819.76	230.32
820.07	230.31
820.39	230.29
820.71	230.30
821.03	230.29
821.34	230.27
821.66	230.28
821.98	230.28
822.30	230.26
822.61	230.38
822.93	230.33
823.25	230.33
823.57	230.30
823.88	230.32
824.20	230.32
824.52	230.34
824.83	230.34
825.15	230.31
825.47	230.28
825.79	230.28
826.10	230.26
826.42	230.25
826.74	230.26
827.05	230.25
827.37	230.25
827.69	230.23
828.00	230.24
828.32	230.22
828.64	230.20
828.95	230.29
829.27	230.22
829.58	230.21
829.90	230.23
830.22	230.24
830.53	230.20
830.85	230.17
831.17	230.11
831.48	230.10
831.80	230.10
832.11	230.10
832.43	230.07
832.75	230.05
833.06	230.15
833.38	230.09
833.69	230.07
834.01	230.06
834.32	230.06
834.64	230.03
834.96	230.03
835.27	230.02
835.59	229.95
835.90	229.92
836.22	229.91
836.53	229.87
836.85	229.83
837.16	230.00
837.48	230.00
837.79	230.05
838.11	230.05
838.42	230.04
838.74	230.05
839.05	230.04
839.37	230.03
839.68	229.92
840.00	229.91
840.31	229.94
840.63	229.92
840.94	229.89
841.26	229.87
841.57	229.86
841.88	229.87
842.20	229.84
842.51	229.81
842.83	229.81
843.14	229.97
843.46	229.97
843.77	229.86
844.08	229.86
844.40	229.79
844.71	229.77
845.03	229.76
845.34	229.74
845.65	229.73
845.97	229.73
846.28	229.73
846.60	229.76
846.91	229.72
847.22	229.70
847.54	229.75
847.85	229.76
848.16	229.74
848.48	229.70
848.79	229.76
849.10	229.77
849.42	229.78
849.73	229.61
850.04	229.60
850.36	229.54
850.67	229.57
850.98	229.57
851.30	229.58
851.61	229.57
851.92	229.56
852.23	229.62
852.55	229.62
852.86	229.61
853.17	229.61
853.49	229.65
853.80	229.69
854.11	229.69
854.42	229.71
854.74	229.70
855.05	229.71
855.36	229.62
855.67	229.62
855.99	229.62
856.30	229.82
856.61	229.82
856.92	229.83
857.23	229.83
857.55	229.81
857.86	229.80
858.17	229.82
858.48	229.80
858.79	229.75
859.11	229.77
859.42	229.76
859.73	229.75
860.04	229.73
860.35	229.69
860.66	229.64
860.98	229.62
861.29	229.64
861.60	229.63
861.91	229.67
862.22	229.65
862.53	229.61
862.84	229.40
863.16	229.45
863.47	229.41
863.78	229.38
864.09	229.41
864.40	229.42
864.71	229.42
865.02	229.45
865.33	229.42
865.64	229.38
865.95	229.38
866.27	229.49
866.58	229.46
866.89	229.47
867.20	229.46
867.51	229.44
867.82	229.43
868.13	229.49
868.44	229.45
868.75	229.49
869.06	229.49
869.37	229.53
869.68	229.48
869.99	229.50
870.30	229.52
870.61	229.53
870.92	229.51
871.23	229.49
871.54	229.51
871.85	229.55
872.16	229.58
872.47	229.56
872.78	229.46
873.09	229.48
873.40	229.47
873.71	229.51
874.02	229.52
874.33	229.50
874.64	229.45
874.95	229.48
875.26	229.43
875.56	229.44
875.87	229.41
876.18	229.41
876.49	229.59
876.80	229.56
877.11	229.52
877.42	229.53
877.73	229.53
878.04	229.50
878.35	229.50
878.66	229.49
878.96	229.50
879.27	229.49
879.58	229.48
879.89	229.45
880.20	229.49
880.51	229.48
880.82	229.48
881.12	229.49
881.43	229.47
881.74	229.44
882.05	229.44
882.36	229.47
882.67	229.47
882.97	229.27
883.28	229.26
883.59	229.26
883.90	229.27
884.21	229.29
884.51	229.29
884.82	229.26
885.13	229.26
885.44	229.25
885.74	229.25
886.05	229.24
886.36	229.26
886.67	229.19
886.98	229.28
887.28	229.29
887.59	229.28
887.90	229.27
888.20	229.27
888.51	229.29
888.82	229.26
889.13	229.28
889.43	229.43
889.74	229.42
890.05	229.42
890.35	229.40
890.66	229.37
890.97	229.35
891.28	229.33
891.58	229.34
891.89	229.34
892.20	229.32
892.50	229.31
892.81	229.29
893.12	229.29
893.42	229.19
893.73	229.20
894.04	229.20
894.34	229.22
894.65	229.21
894.95	229.20
895.26	229.20
895.57	229.27
895.87	229.08
896.18	229.11
896.48	229.13
896.79	229.12
897.10	229.16
897.40	229.17
897.71	229.19
898.01	229.17
898.32	229.19
898.63	229.17
898.93	229.19
899.24	229.20
899.54	229.20
899.85	229.20
900.15	229.19
900.46	229.18
900.76	229.19
901.07	229.19
901.38	229.18
901.68	229.20
901.99	229.10
902.29	229.12
902.60	229.10
902.90	229.07
903.21	229.07
903.51	229.05
903.82	229.08
904.12	229.08
904.43	229.09
904.73	229.08
905.03	229.09
905.34	229.26
905.64	229.24
905.95	229.23
906.25	229.22
906.56	229.22
906.86	229.22
907.17	229.20
907.47	229.20
907.77	229.18
908.08	229.14
908.38	229.15
908.69	229.16
908.99	229.19
909.30	229.20
909.60	229.19
909.90	229.17
910.21	229.12
910.51	229.09
910.81	229.08
911.12	229.09
911.42	229.10
911.73	228.91
912.03	228.93
912.33	228.97
912.64	228.95
912.94	228.94
913.24	228.91
913.55	228.90
913.85	228.90
914.15	228.94
914.46	228.96
914.76	228.95
915.06	228.93
915.37	228.90
915.67	228.89
915.97	228.91
916.27	228.89
916.58	228.90
916.88	228.90
917.18	228.88
917.49	229.00
917.79	228.98
918.09	229.01
918.39	229.04
918.70	229.02
919.00	229.04
919.30	229.12
919.60	229.11
919.91	229.10
920.21	229.11
920.51	229.08
920.81	229.07
921.12	229.10
921.42	229.09
921.72	229.11
922.02	229.11
922.32	229.14
922.63	229.15
922.93	229.25
923.23	229.26
923.53	229.25
923.83	229.13
924.13	229.15
924.44	229.14
924.74	229.17
925.04	229.21
925.34	229.21
925.64	229.14
925.94	229.14
926.24	229.23
926.55	229.21
926.85	229.22
927.15	229.21
927.45	229.21
927.75	229.21
928.05	229.21
928.35	229.20
928.65	229.22
928.95	229.23
929.26	229.14
929.56	229.18
929.86	229.19
930.16	229.18
930.46	229.16
930.76	229.18
931.06	229.09
931.36	229.04
931.66	229.07
931.96	229.09
932.26	229.10
932.56	229.03
932.86	229.04
933.16	229.05
933.46	229.03
933.76	229.01
934.06	229.04
934.36	229.09
934.66	229.10
934.96	229.08
935.26	229.08
935.56	229.11
935.86	229.06
936.16	229.05
936.46	229.05
936.76	229.05
937.06	229.03
937.36	229.04
937.66	229.05
937.96	229.04
938.26	229.00
938.56	228.99
938.86	229.00
939.16	229.03
939.46	229.04
939.76	229.06
940.06	229.06
940.35	229.04
940.65	228.95
940.95	228.95
941.25	228.90
941.55	228.89
941.85	228.88
942.15	228.92
942.45	228.95
942.75	228.94
943.04	228.95
943.34	228.98
943.64	228.97
943.94	228.95
944.24	228.94
944.54	228.96
944.84	228.95
945.13	228.93
945.43	228.90
945.73	228.87
946.03	228.86
946.33	228.84
946.62	228.83
946.92	228.83
947.22	228.84
947.52	228.87
947.82	228.89
948.11	228.87
948.41	228.83
948.71	228.79
949.01	228.81
949.31	228.79
949.60	228.77
949.90	228.80
950.20	228.80
950.50	228.79
950.79	228.78
951.09	228.82
951.39	228.82
951.69	228.80
951.98	228.86
952.28	228.88
952.58	228.87
952.87	228.88
953.17	228.91
953.47	228.88
953.76	228.86
954.06	228.83
954.36	228.80
954.66	228.80
954.95	228.84
955.25	228.85
955.55	228.87
955.84	228.84
956.14	228.86
956.44	228.87
956.73	228.85
957.03	228.86
957.32	228.85
957.62	228.86
957.92	228.89
958.21	228.86
958.51	229.06
958.81	229.09
959.10	229.11
959.40	229.15
959.69	229.17
959.99	229.20
960.29	229.21
960.58	229.20
960.88	229.28
961.17	229.25
961.47	229.26
961.76	229.24
962.06	229.26
962.36	229.23
962.65	229.24
962.95	229.26
963.24	229.25
963.54	229.25
963.83	229.27
964.13	229.26
964.42	229.23
964.72	229.08
965.01	229.08
965.31	229.06
965.60	229.02
965.90	229.13
966.19	229.10
966.49	229.10
966.78	229.10
967.08	229.07
967.37	229.07
967.67	229.05
967.96	229.08
968.26	229.08
968.55	229.11
968.85	229.10
969.14	229.08
969.43	229.08
969.73	229.06
970.02	229.04
970.32	229.03
970.61	229.02
970.91	228.97
971.20	228.94
971.49	228.93
971.79	228.95
972.08	228.81
972.38	228.84
972.67	228.83
972.96	228.86
973.26	228.82
973.55	228.87
973.85	228.87
974.14	228.87
974.43	228.88
974.73	228.85
975.02	228.84
975.31	228.85
975.61	228.85
975.90	228.84
976.19	228.83
976.49	228.84
976.78	228.85
977.07	228.86
977.37	228.87
977.66	228.90
977.95	228.87
978.24	228.89
978.54	228.92
978.83	228.91
979.12	228.90
979.42	228.91
979.71	228.88
980.00	228.87
980.29	228.87
980.59	228.85
980.88	228.90
981.17	228.89
981.46	228.89
981.76	228.89
982.05	228.96
982.34	228.97
982.63	228.96
982.93	228.97
983.22	229.00
983.51	229.00
983.80	229.00
984.09	229.03
984.39	229.02
984.68	228.98
984.97	228.99
985.26	228.98
985.55	228.98
985.85	228.94
986.14	228.96
986.43	228.98
986.72	228.96
987.01	228.90
987.30	228.90
987.59	228.89
987.89	228.89
988.18	228.83
988.47	228.80
988.76	228.78
989.05	228.77
989.34	228.75
989.63	228.80
989.92	228.78
990.22	228.75
990.51	228.75
990.80	228.74
991.09	228.75
991.38	228.78
991.67	228.76
991.96	228.75
992.25	228.74
992.54	228.71
992.83	228.72
993.12	228.72
993.41	228.75
993.70	228.83
993.99	228.86
994.28	228.88
994.58	228.92
994.87	228.91
995.16	228.90
995.45	228.89
995.74	228.82
996.03	228.85
996.32	228.88
996.61	228.93
996.90	228.92
997.19	228.91
997.48	228.90
997.77	228.89
998.06	228.91
998.34	228.90
998.63	228.90
998.92	228.90
999.21	228.93
999.50	228.93
999.79	228.87
1000.08	228.87
1000.37	228.86
1000.66	228.85
1000.95	228.89
1001.24	228.91
1001.53	228.94
1001.82	228.95
1002.11	228.91
1002.40	228.92
1002.68	228.95
1002.97	229.08
1003.26	229.06
1003.55	229.06
1003.84	229.07
1004.13	229.13
1004.42	229.13
1004.71	229.13
1004.99	229.13
1005.28	229.16
1005.57	229.14
1005.86	229.13
1006.15	229.12
1006.44	229.09
1006.72	229.11
1007.01	229.08
1007.30	229.08
1007.59	229.05
1007.88	229.05
1008.17	229.06
1008.45	229.03
1008.74	228.96
1009.03	228.87
1009.32	228.87
1009.60	228.87
1009.89	228.86
1010.18	228.79
1010.47	228.79
1010.76	228.78
1011.04	228.77
1011.33	228.77
1011.62	228.78
1011.91	228.80
1012.19	228.81
1012.48	228.81
1012.77	228.81
1013.05	228.86
1013.34	228.86
1013.63	228.85
1013.92	228.87
1014.20	228.85
1014.49	228.86
1014.78	228.86
1015.06	228.80
1015.35	228.81
1015.64	228.82
1015.92	228.84
1016.21	228.84
1016.50	228.84
1016.78	228.87
1017.07	228.88
1017.36	228.84
1017.64	228.82
1017.93	228.83
1018.22	228.81
1018.50	228.81
1018.79	228.81
1019.08	228.74
1019.36	228.75
1019.65	228.74
1019.93	228.78
1020.22	228.81
1020.51	228.90
1020.79	228.88
1021.08	228.53
1021.36	228.59
1021.65	228.95
1021.94	228.55
1022.22	228.90
1022.51	228.53
1022.79	229.74
1023.08	229.11
1023.36	230.66
1023.65	228.39
>>>>>End Processed Spectral Data<<<<<
