SpectraSuite Data File
++++++++++++++++++++++++++++++++++++
Date: Tue Oct 06 12:08:38 EDT 2015
User: lab3
Dark Spectrum Present: No
Reference Spectrum Present: No
Number of Sampled Component Spectra: 1
Spectrometers: USB2E7196
Integration Time (usec): 66000 (USB2E7196)
Spectra Averaged: 400 (USB2E7196)
Boxcar Smoothing: 10 (USB2E7196)
Correct for Electrical Dark: No (USB2E7196)
Strobe/Lamp Enabled: No (USB2E7196)
Correct for Detector Non-linearity: No (USB2E7196)
Correct for Stray Light: No (USB2E7196)
Number of Pixels in Processed Spectrum: 2048
>>>>>Begin Processed Spectral Data<<<<<
339.09	0.00
339.48	216.83
339.86	218.35
340.24	219.33
340.63	221.13
341.01	225.22
341.39	223.85
341.78	225.19
342.16	226.48
342.54	226.70
342.93	215.18
343.31	226.03
343.69	226.57
344.07	227.03
344.46	227.49
344.84	227.87
345.22	228.07
345.60	228.34
345.99	228.54
346.37	228.68
346.75	228.80
347.13	228.90
347.52	228.97
347.90	229.09
348.28	229.15
348.66	229.24
349.05	229.24
349.43	229.31
349.81	229.40
350.19	229.45
350.57	229.52
350.96	229.62
351.34	229.74
351.72	229.85
352.10	229.96
352.48	230.04
352.87	230.09
353.25	230.15
353.63	230.20
354.01	230.25
354.39	230.34
354.77	230.41
355.15	230.53
355.54	230.57
355.92	230.58
356.30	230.64
356.68	230.82
357.06	230.91
357.44	230.96
357.82	231.00
358.20	231.21
358.58	231.27
358.97	231.33
359.35	231.43
359.73	231.51
360.11	231.56
360.49	231.61
360.87	231.68
361.25	231.76
361.63	231.88
362.01	231.93
362.39	231.96
362.77	232.01
363.15	232.04
363.53	232.09
363.91	232.11
364.29	232.15
364.67	232.00
365.05	232.01
365.43	232.05
365.81	232.11
366.19	232.05
366.57	232.14
366.95	232.12
367.33	232.09
367.71	232.10
368.09	232.15
368.47	232.16
368.85	232.15
369.23	232.17
369.61	232.07
369.99	232.10
370.37	232.11
370.75	232.21
371.13	232.16
371.51	232.11
371.89	232.10
372.27	232.09
372.65	232.08
373.03	232.04
373.41	231.98
373.78	231.91
374.16	231.80
374.54	231.70
374.92	231.66
375.30	231.61
375.68	231.52
376.06	231.47
376.44	231.40
376.82	231.37
377.19	231.32
377.57	231.27
377.95	231.18
378.33	231.12
378.71	230.94
379.09	230.90
379.47	230.88
379.84	230.82
380.22	230.74
380.60	230.66
380.98	230.64
381.36	230.60
381.73	230.55
382.11	230.53
382.49	230.49
382.87	230.41
383.25	230.38
383.62	230.55
384.00	230.48
384.38	230.44
384.76	230.42
385.13	230.44
385.51	230.40
385.89	230.36
386.27	230.33
386.64	230.30
387.02	230.26
387.40	230.22
387.78	230.19
388.15	230.18
388.53	230.15
388.91	230.12
389.29	230.08
389.66	230.09
390.04	230.06
390.42	230.06
390.79	230.07
391.17	230.06
391.55	229.83
391.92	229.83
392.30	229.83
392.68	229.80
393.05	229.79
393.43	229.80
393.81	229.80
394.18	229.77
394.56	229.79
394.94	229.84
395.31	229.84
395.69	229.91
396.06	229.96
396.44	229.99
396.82	229.98
397.19	230.11
397.57	230.12
397.95	230.18
398.32	230.18
398.70	230.25
399.07	230.32
399.45	230.38
399.82	230.44
400.20	230.51
400.58	230.59
400.95	230.60
401.33	230.74
401.70	230.97
402.08	231.12
402.45	231.24
402.83	231.41
403.20	231.58
403.58	231.73
403.95	231.93
404.33	232.15
404.71	232.38
405.08	232.67
405.46	232.91
405.83	233.20
406.21	233.48
406.58	233.81
406.96	234.14
407.33	234.51
407.70	234.93
408.08	235.46
408.45	235.95
408.83	236.49
409.20	236.98
409.58	237.43
409.95	238.04
410.33	238.71
410.70	239.34
411.08	240.09
411.45	240.87
411.82	241.66
412.20	242.60
412.57	243.68
412.95	244.55
413.32	245.68
413.69	246.84
414.07	248.09
414.44	249.42
414.82	250.83
415.19	252.47
415.56	254.12
415.94	255.86
416.31	257.80
416.68	259.74
417.06	261.98
417.43	264.07
417.81	266.47
418.18	268.94
418.55	271.64
418.93	274.46
419.30	277.40
419.67	280.50
420.04	283.71
420.42	287.07
420.79	290.93
421.16	294.81
421.54	298.76
421.91	302.89
422.28	307.19
422.66	311.81
423.03	316.18
423.40	320.81
423.77	325.75
424.15	330.83
424.52	336.05
424.89	341.73
425.26	347.35
425.64	352.61
426.01	358.47
426.38	364.46
426.75	370.62
427.13	376.92
427.50	383.56
427.87	390.39
428.24	397.28
428.61	403.90
428.99	411.04
429.36	418.92
429.73	426.44
430.10	433.91
430.47	441.58
430.85	449.55
431.22	457.97
431.59	466.61
431.96	475.04
432.33	484.44
432.70	493.37
433.08	504.02
433.45	514.02
433.82	523.82
434.19	534.84
434.56	545.66
434.93	556.16
435.30	566.58
435.68	578.39
436.05	589.94
436.42	601.48
436.79	612.03
437.16	623.38
437.53	635.63
437.90	647.88
438.27	659.80
438.64	672.63
439.01	684.38
439.38	695.24
439.75	705.69
440.13	717.56
440.50	728.85
440.87	737.80
441.24	747.64
441.61	758.46
441.98	766.41
442.35	775.79
442.72	785.43
443.09	794.65
443.46	800.71
443.83	805.22
444.20	808.88
444.57	814.32
444.94	817.62
445.31	820.89
445.68	823.66
446.05	825.73
446.42	825.39
446.79	824.79
447.16	824.24
447.53	823.86
447.90	820.33
448.27	816.87
448.64	811.50
449.01	807.87
449.37	800.41
449.74	793.67
450.11	784.94
450.48	775.26
450.85	765.52
451.22	757.00
451.59	748.75
451.96	741.40
452.33	730.69
452.70	721.07
453.07	709.46
453.43	697.92
453.80	686.71
454.17	675.97
454.54	665.95
454.91	654.65
455.28	643.90
455.65	633.73
456.02	623.13
456.38	614.53
456.75	603.47
457.12	594.53
457.49	585.44
457.86	576.99
458.23	569.56
458.59	561.31
458.96	552.95
459.33	545.56
459.70	538.03
460.07	532.20
460.43	525.38
460.80	518.99
461.17	513.40
461.54	507.42
461.91	501.81
462.27	496.12
462.64	491.49
463.01	486.16
463.38	480.90
463.74	476.08
464.11	471.88
464.48	468.06
464.85	463.89
465.21	460.69
465.58	457.10
465.95	453.03
466.32	449.79
466.68	446.61
467.05	443.40
467.42	440.27
467.78	436.95
468.15	433.90
468.52	431.66
468.88	428.72
469.25	426.03
469.62	423.88
469.98	421.53
470.35	419.39
470.72	417.54
471.08	415.59
471.45	413.93
471.82	412.09
472.18	410.18
472.55	408.96
472.92	407.46
473.28	406.23
473.65	404.95
474.02	403.75
474.38	402.72
474.75	402.13
475.11	401.27
475.48	400.88
475.85	400.47
476.21	400.24
476.58	400.08
476.94	400.26
477.31	400.31
477.67	400.45
478.04	400.79
478.41	401.20
478.77	401.79
479.14	402.19
479.50	402.95
479.87	403.95
480.23	404.95
480.60	405.87
480.96	406.90
481.33	408.36
481.69	409.78
482.06	411.18
482.42	412.49
482.79	414.09
483.15	415.96
483.52	418.07
483.88	420.13
484.25	422.32
484.61	424.61
484.98	427.01
485.34	429.74
485.71	432.58
486.07	435.62
486.44	438.62
486.80	441.98
487.17	445.41
487.53	449.16
487.90	453.05
488.26	457.35
488.62	461.82
488.99	466.31
489.35	471.08
489.72	476.23
490.08	481.59
490.44	487.08
490.81	492.76
491.17	498.54
491.54	504.71
491.90	511.03
492.26	517.75
492.63	524.88
492.99	532.20
493.36	539.80
493.72	547.79
494.08	555.95
494.45	564.51
494.81	573.48
495.17	582.67
495.54	592.37
495.90	602.48
496.26	612.81
496.63	623.39
496.99	634.33
497.35	645.72
497.72	657.50
498.08	669.72
498.44	682.17
498.80	695.44
499.17	709.02
499.53	723.04
499.89	737.45
500.26	751.93
500.62	766.72
500.98	782.17
501.34	797.81
501.71	814.17
502.07	830.80
502.43	847.86
502.79	865.06
503.16	882.74
503.52	900.65
503.88	919.07
504.24	937.92
504.60	956.99
504.97	976.49
505.33	996.40
505.69	1017.28
506.05	1038.25
506.41	1059.12
506.78	1080.31
507.14	1102.26
507.50	1124.67
507.86	1147.51
508.22	1170.42
508.59	1193.16
508.95	1216.77
509.31	1240.83
509.67	1265.58
510.03	1290.15
510.39	1315.11
510.75	1340.02
511.12	1365.04
511.48	1389.99
511.84	1415.02
512.20	1440.48
512.56	1466.36
512.92	1492.03
513.28	1517.40
513.64	1543.05
514.00	1568.76
514.37	1594.67
514.73	1620.32
515.09	1645.48
515.45	1670.86
515.81	1696.37
516.17	1721.91
516.53	1746.73
516.89	1771.40
517.25	1796.13
517.61	1820.73
517.97	1845.58
518.33	1869.92
518.69	1894.06
519.05	1918.44
519.41	1942.75
519.77	1966.99
520.13	1990.98
520.49	2014.81
520.85	2038.55
521.21	2062.21
521.57	2085.94
521.93	2108.57
522.29	2131.70
522.65	2154.23
523.01	2176.56
523.37	2198.11
523.73	2220.04
524.09	2242.06
524.45	2264.12
524.81	2285.22
525.17	2306.11
525.53	2326.23
525.89	2346.76
526.25	2366.91
526.61	2385.84
526.97	2404.94
527.33	2423.40
527.68	2440.97
528.04	2457.92
528.40	2473.91
528.76	2490.31
529.12	2505.64
529.48	2521.37
529.84	2535.74
530.20	2551.26
530.56	2565.64
530.91	2579.83
531.27	2593.12
531.63	2605.47
531.99	2617.54
532.35	2628.09
532.71	2638.67
533.07	2649.51
533.42	2658.74
533.78	2668.73
534.14	2678.92
534.50	2687.64
534.86	2696.60
535.21	2703.63
535.57	2710.78
535.93	2718.33
536.29	2724.73
536.65	2731.38
537.00	2735.91
537.36	2740.90
537.72	2744.08
538.08	2747.04
538.44	2749.13
538.79	2751.50
539.15	2753.33
539.51	2754.50
539.87	2756.31
540.22	2756.07
540.58	2756.32
540.94	2756.21
541.29	2754.64
541.65	2751.63
542.01	2748.74
542.37	2744.81
542.72	2742.64
543.08	2739.05
543.44	2735.17
543.79	2729.62
544.15	2723.87
544.51	2718.94
544.87	2712.06
545.22	2704.69
545.58	2697.53
545.94	2691.15
546.29	2683.12
546.65	2674.26
547.01	2665.54
547.36	2656.51
547.72	2647.41
548.07	2637.17
548.43	2626.72
548.79	2615.16
549.14	2604.68
549.50	2594.02
549.86	2582.77
550.21	2569.68
550.57	2558.00
550.92	2544.57
551.28	2531.81
551.64	2519.36
551.99	2506.97
552.35	2494.64
552.70	2482.10
553.06	2469.89
553.41	2456.55
553.77	2442.91
554.13	2429.45
554.48	2415.31
554.84	2400.56
555.19	2386.85
555.55	2372.22
555.90	2357.86
556.26	2344.45
556.61	2330.29
556.97	2315.27
557.32	2300.54
557.68	2286.08
558.03	2271.02
558.39	2256.78
558.74	2242.86
559.10	2226.89
559.45	2211.44
559.81	2196.65
560.16	2181.59
560.52	2166.22
560.87	2151.67
561.23	2136.57
561.58	2122.02
561.94	2106.61
562.29	2091.45
562.64	2076.18
563.00	2061.15
563.35	2046.63
563.71	2031.99
564.06	2016.93
564.42	2002.29
564.77	1987.85
565.12	1973.80
565.48	1959.68
565.83	1945.25
566.19	1930.84
566.54	1916.93
566.89	1901.87
567.25	1886.48
567.60	1872.17
567.96	1857.35
568.31	1841.97
568.66	1827.51
569.02	1813.00
569.37	1798.68
569.72	1784.70
570.08	1770.50
570.43	1756.30
570.78	1741.40
571.14	1726.37
571.49	1711.87
571.84	1698.15
572.20	1683.14
572.55	1668.33
572.90	1652.95
573.26	1637.76
573.61	1622.21
573.96	1607.36
574.31	1593.18
574.67	1579.41
575.02	1564.83
575.37	1550.01
575.72	1535.06
576.08	1520.41
576.43	1505.90
576.78	1491.46
577.13	1477.09
577.49	1462.80
577.84	1448.37
578.19	1434.18
578.54	1420.07
578.90	1405.83
579.25	1391.10
579.60	1377.55
579.95	1363.94
580.30	1350.59
580.66	1337.24
581.01	1324.07
581.36	1310.75
581.71	1297.35
582.06	1284.00
582.42	1270.87
582.77	1258.11
583.12	1245.71
583.47	1233.14
583.82	1220.61
584.17	1208.13
584.53	1195.67
584.88	1183.60
585.23	1171.38
585.58	1159.38
585.93	1147.43
586.28	1136.06
586.63	1124.60
586.98	1113.02
587.34	1101.77
587.69	1090.31
588.04	1079.19
588.39	1068.26
588.74	1057.25
589.09	1046.54
589.44	1035.37
589.79	1024.76
590.14	1014.24
590.49	1003.82
590.84	993.74
591.19	983.73
591.54	973.73
591.89	963.55
592.25	953.36
592.60	943.18
592.95	933.27
593.30	923.40
593.65	913.46
594.00	903.78
594.35	894.72
594.70	885.23
595.05	876.40
595.40	867.41
595.75	858.32
596.10	849.62
596.45	840.79
596.80	832.38
597.15	823.94
597.50	815.55
597.85	807.49
598.19	799.32
598.54	791.18
598.89	783.21
599.24	775.61
599.59	768.11
599.94	761.11
600.29	753.85
600.64	746.70
600.99	739.52
601.34	732.56
601.69	725.07
602.04	718.12
602.39	711.28
602.74	704.62
603.08	698.03
603.43	691.56
603.78	685.19
604.13	678.90
604.48	672.62
604.83	666.54
605.18	660.42
605.53	654.48
605.87	648.43
606.22	642.66
606.57	636.84
606.92	630.94
607.27	625.13
607.62	619.66
607.96	614.30
608.31	609.22
608.66	603.97
609.01	598.99
609.36	594.22
609.70	589.31
610.05	584.41
610.40	579.63
610.75	574.74
611.10	570.20
611.44	565.61
611.79	561.12
612.14	556.60
612.49	552.09
612.83	547.80
613.18	543.72
613.53	539.64
613.88	535.59
614.22	531.74
614.57	527.83
614.92	523.92
615.27	520.11
615.61	516.30
615.96	512.62
616.31	508.96
616.65	505.28
617.00	501.72
617.35	498.21
617.70	494.83
618.04	491.63
618.39	488.30
618.74	485.11
619.08	481.89
619.43	478.74
619.78	475.70
620.12	472.67
620.47	469.81
620.82	466.90
621.16	464.08
621.51	461.41
621.85	458.74
622.20	456.19
622.55	453.64
622.89	451.10
623.24	448.74
623.59	446.35
623.93	444.01
624.28	441.80
624.62	439.79
624.97	437.72
625.32	435.50
625.66	433.30
626.01	431.15
626.35	429.17
626.70	427.16
627.04	425.32
627.39	423.35
627.73	421.41
628.08	419.62
628.43	417.84
628.77	416.01
629.12	414.36
629.46	412.61
629.81	411.02
630.15	409.33
630.50	407.65
630.84	406.08
631.19	404.55
631.53	403.07
631.88	401.38
632.22	399.79
632.57	398.52
632.91	397.23
633.26	396.01
633.60	394.70
633.95	393.45
634.29	392.10
634.64	390.85
634.98	389.47
635.32	388.23
635.67	387.09
636.01	385.93
636.36	384.76
636.70	383.77
637.05	382.58
637.39	381.56
637.73	380.54
638.08	379.53
638.42	378.55
638.77	377.45
639.11	376.36
639.45	375.32
639.80	374.24
640.14	373.23
640.49	372.13
640.83	371.11
641.17	370.10
641.52	369.12
641.86	368.19
642.20	367.43
642.55	366.46
642.89	365.52
643.23	364.61
643.58	363.81
643.92	362.83
644.26	361.93
644.61	361.10
644.95	360.23
645.29	359.36
645.64	358.48
645.98	357.64
646.32	356.88
646.66	356.07
647.01	355.25
647.35	354.48
647.69	353.72
648.04	353.00
648.38	352.24
648.72	351.53
649.06	350.80
649.41	350.03
649.75	349.33
650.09	348.64
650.43	347.93
650.78	347.20
651.12	346.50
651.46	345.84
651.80	345.17
652.14	344.51
652.49	343.86
652.83	343.15
653.17	342.48
653.51	341.85
653.85	341.29
654.20	340.66
654.54	339.98
654.88	339.34
655.22	338.72
655.56	338.03
655.90	337.34
656.25	336.70
656.59	336.06
656.93	335.48
657.27	334.95
657.61	334.31
657.95	333.75
658.29	333.20
658.64	332.69
658.98	332.12
659.32	331.54
659.66	330.99
660.00	330.46
660.34	329.91
660.68	329.34
661.02	328.69
661.36	328.10
661.70	327.56
662.05	327.04
662.39	326.54
662.73	326.12
663.07	325.72
663.41	325.24
663.75	324.73
664.09	324.19
664.43	323.58
664.77	323.09
665.11	322.50
665.45	321.96
665.79	321.42
666.13	320.88
666.47	320.32
666.81	319.73
667.15	319.13
667.49	318.64
667.83	318.21
668.17	317.78
668.51	317.33
668.85	316.87
669.19	316.48
669.53	315.95
669.87	315.45
670.21	314.95
670.55	314.49
670.89	314.12
671.23	313.66
671.57	313.21
671.91	312.80
672.25	312.40
672.58	312.01
672.92	311.52
673.26	311.12
673.60	310.72
673.94	310.34
674.28	309.99
674.62	309.60
674.96	309.14
675.30	308.69
675.64	308.26
675.97	307.80
676.31	307.29
676.65	306.83
676.99	306.47
677.33	305.98
677.67	305.52
678.01	304.96
678.34	304.51
678.68	304.09
679.02	303.61
679.36	303.17
679.70	302.69
680.04	302.25
680.37	301.77
680.71	301.34
681.05	300.92
681.39	300.48
681.73	299.98
682.06	299.51
682.40	299.09
682.74	298.70
683.08	298.35
683.42	297.92
683.75	297.49
684.09	296.95
684.43	296.50
684.77	296.05
685.10	295.66
685.44	295.26
685.78	294.85
686.12	294.45
686.45	293.99
686.79	293.52
687.13	293.11
687.46	292.68
687.80	292.25
688.14	291.73
688.48	291.28
688.81	290.86
689.15	290.49
689.49	290.02
689.82	289.53
690.16	288.99
690.50	288.56
690.83	288.12
691.17	287.66
691.51	287.21
691.84	286.81
692.18	286.35
692.52	285.91
692.85	285.45
693.19	285.09
693.52	284.68
693.86	284.28
694.20	283.86
694.53	283.46
694.87	282.99
695.21	282.57
695.54	282.16
695.88	281.70
696.21	281.20
696.55	280.77
696.88	280.31
697.22	279.89
697.56	279.46
697.89	279.02
698.23	278.62
698.56	278.18
698.90	277.77
699.23	277.33
699.57	276.91
699.90	276.48
700.24	275.99
700.58	275.59
700.91	275.22
701.25	274.97
701.58	274.63
701.92	274.29
702.25	273.94
702.59	273.53
702.92	273.16
703.26	272.77
703.59	272.38
703.93	272.17
704.26	271.81
704.60	271.43
704.93	271.04
705.26	270.62
705.60	270.29
705.93	269.86
706.27	269.53
706.60	269.20
706.94	268.88
707.27	268.48
707.61	268.10
707.94	267.69
708.27	267.15
708.61	266.71
708.94	266.33
709.28	265.95
709.61	265.58
709.94	265.26
710.28	264.95
710.61	264.65
710.95	264.18
711.28	263.96
711.61	263.64
711.95	263.34
712.28	263.02
712.61	262.66
712.95	262.42
713.28	262.18
713.61	261.82
713.95	261.46
714.28	261.17
714.61	260.84
714.95	260.54
715.28	260.23
715.61	259.92
715.95	259.63
716.28	259.33
716.61	259.06
716.95	258.71
717.28	258.40
717.61	258.08
717.94	257.76
718.28	257.35
718.61	257.07
718.94	256.76
719.27	256.51
719.61	256.28
719.94	255.99
720.27	255.64
720.60	255.39
720.94	255.14
721.27	254.91
721.60	254.70
721.93	254.44
722.27	254.24
722.60	254.01
722.93	253.75
723.26	253.53
723.59	253.27
723.93	253.10
724.26	252.89
724.59	252.64
724.92	252.45
725.25	252.27
725.59	252.06
725.92	251.89
726.25	251.67
726.58	251.46
726.91	251.22
727.24	251.02
727.57	250.81
727.91	250.56
728.24	250.38
728.57	250.14
728.90	249.98
729.23	249.74
729.56	249.64
729.89	249.45
730.22	249.23
730.55	249.04
730.89	248.83
731.22	248.60
731.55	248.43
731.88	248.24
732.21	248.04
732.54	247.83
732.87	247.63
733.20	247.45
733.53	247.28
733.86	247.13
734.19	246.91
734.52	246.77
734.85	246.71
735.18	246.52
735.51	246.40
735.84	246.24
736.17	246.13
736.50	245.86
736.83	245.88
737.16	245.73
737.49	245.61
737.82	245.44
738.15	245.33
738.48	245.17
738.81	244.99
739.14	244.81
739.47	244.66
739.80	244.50
740.13	244.38
740.46	244.21
740.79	244.03
741.12	243.89
741.45	243.71
741.78	243.51
742.11	243.39
742.44	243.21
742.77	243.08
743.10	242.92
743.43	242.78
743.75	242.46
744.08	242.57
744.41	242.40
744.74	242.26
745.07	242.08
745.40	241.97
745.73	241.93
746.06	241.82
746.39	241.73
746.71	241.60
747.04	241.45
747.37	241.32
747.70	241.23
748.03	241.11
748.36	241.02
748.68	240.87
749.01	240.73
749.34	240.63
749.67	240.51
750.00	240.43
750.33	240.44
750.65	240.38
750.98	240.02
751.31	239.93
751.64	239.83
751.97	239.82
752.29	239.70
752.62	239.51
752.95	239.39
753.28	239.24
753.60	239.11
753.93	239.03
754.26	238.93
754.59	238.74
754.91	238.63
755.24	238.50
755.57	238.49
755.90	238.36
756.22	238.24
756.55	238.10
756.88	237.95
757.20	237.74
757.53	237.57
757.86	237.47
758.19	237.38
758.51	237.27
758.84	237.11
759.17	237.00
759.49	236.93
759.82	236.91
760.15	236.86
760.47	236.76
760.80	236.62
761.13	236.56
761.45	236.50
761.78	236.43
762.11	236.35
762.43	236.16
762.76	236.09
763.08	236.04
763.41	235.98
763.74	235.90
764.06	235.81
764.39	235.73
764.71	235.65
765.04	235.56
765.37	235.49
765.69	235.40
766.02	235.33
766.34	235.24
766.67	235.10
767.00	235.05
767.32	235.09
767.65	235.16
767.97	235.08
768.30	235.04
768.62	234.98
768.95	234.90
769.27	234.82
769.60	234.78
769.92	234.69
770.25	234.60
770.57	234.50
770.90	234.47
771.22	234.41
771.55	234.35
771.87	234.28
772.20	234.23
772.52	234.33
772.85	234.50
773.17	234.46
773.50	234.40
773.82	234.33
774.15	234.18
774.47	234.01
774.80	233.95
775.12	233.90
775.45	233.85
775.77	233.82
776.09	233.79
776.42	233.74
776.74	233.74
777.07	233.71
777.39	233.68
777.72	233.61
778.04	233.60
778.36	233.56
778.69	233.51
779.01	233.47
779.33	233.25
779.66	233.01
779.98	232.95
780.31	232.93
780.63	232.94
780.95	232.94
781.28	232.90
781.60	232.85
781.92	232.81
782.25	232.78
782.57	232.74
782.89	232.70
783.22	232.66
783.54	232.59
783.86	232.56
784.19	232.50
784.51	232.51
784.83	232.43
785.16	232.40
785.48	232.39
785.80	232.38
786.12	232.38
786.45	232.35
786.77	232.33
787.09	232.28
787.42	232.20
787.74	232.17
788.06	232.15
788.38	232.13
788.71	232.08
789.03	232.06
789.35	232.04
789.67	232.00
789.99	231.99
790.32	231.95
790.64	231.96
790.96	232.10
791.28	232.04
791.61	232.02
791.93	232.02
792.25	231.97
792.57	232.05
792.89	232.00
793.21	232.00
793.54	231.95
793.86	231.91
794.18	231.90
794.50	231.85
794.82	231.82
795.14	231.81
795.47	231.84
795.79	231.81
796.11	231.74
796.43	231.72
796.75	231.68
797.07	231.66
797.39	231.62
797.71	231.46
798.04	231.45
798.36	231.43
798.68	231.39
799.00	231.39
799.32	231.27
799.64	231.28
799.96	231.25
800.28	231.28
800.60	231.28
800.92	231.26
801.24	231.23
801.56	231.23
801.89	231.21
802.21	231.18
802.53	231.13
802.85	231.16
803.17	231.23
803.49	231.17
803.81	231.14
804.13	231.11
804.45	231.07
804.77	231.08
805.09	231.07
805.41	231.04
805.73	230.98
806.05	230.92
806.37	230.89
806.69	230.87
807.01	230.81
807.33	230.79
807.65	230.72
807.97	230.79
808.28	230.74
808.60	230.72
808.92	230.67
809.24	230.77
809.56	230.73
809.88	230.66
810.20	230.66
810.52	230.69
810.84	230.65
811.16	230.61
811.48	230.58
811.80	230.61
812.12	230.62
812.43	230.64
812.75	230.64
813.07	230.61
813.39	230.60
813.71	230.58
814.03	230.57
814.35	230.56
814.67	230.49
814.98	230.46
815.30	230.45
815.62	230.43
815.94	230.31
816.26	230.31
816.58	230.26
816.89	230.26
817.21	230.21
817.53	230.22
817.85	230.25
818.17	230.23
818.48	230.15
818.80	230.15
819.12	230.11
819.44	230.10
819.76	230.07
820.07	230.06
820.39	230.06
820.71	230.07
821.03	230.08
821.34	230.06
821.66	230.08
821.98	230.08
822.30	230.09
822.61	230.17
822.93	230.14
823.25	230.14
823.57	230.12
823.88	230.13
824.20	230.12
824.52	230.13
824.83	230.12
825.15	230.11
825.47	230.10
825.79	230.12
826.10	230.09
826.42	230.07
826.74	230.08
827.05	230.06
827.37	230.04
827.69	230.02
828.00	230.01
828.32	230.01
828.64	229.98
828.95	230.04
829.27	229.99
829.58	229.98
829.90	229.98
830.22	229.98
830.53	229.94
830.85	229.92
831.17	229.87
831.48	229.86
831.80	229.87
832.11	229.85
832.43	229.81
832.75	229.80
833.06	229.91
833.38	229.84
833.69	229.83
834.01	229.82
834.32	229.79
834.64	229.78
834.96	229.77
835.27	229.78
835.59	229.73
835.90	229.70
836.22	229.70
836.53	229.67
836.85	229.66
837.16	229.82
837.48	229.82
837.79	229.89
838.11	229.90
838.42	229.88
838.74	229.89
839.05	229.88
839.37	229.89
839.68	229.77
840.00	229.78
840.31	229.80
840.63	229.79
840.94	229.80
841.26	229.79
841.57	229.78
841.88	229.77
842.20	229.73
842.51	229.71
842.83	229.70
843.14	229.86
843.46	229.86
843.77	229.75
844.08	229.73
844.40	229.65
844.71	229.63
845.03	229.61
845.34	229.60
845.65	229.59
845.97	229.58
846.28	229.58
846.60	229.60
846.91	229.57
847.22	229.57
847.54	229.58
847.85	229.59
848.16	229.56
848.48	229.55
848.79	229.62
849.10	229.63
849.42	229.63
849.73	229.45
850.04	229.45
850.36	229.39
850.67	229.44
850.98	229.43
851.30	229.45
851.61	229.43
851.92	229.42
852.23	229.48
852.55	229.50
852.86	229.51
853.17	229.52
853.49	229.56
853.80	229.57
854.11	229.59
854.42	229.60
854.74	229.58
855.05	229.58
855.36	229.48
855.67	229.49
855.99	229.49
856.30	229.70
856.61	229.69
856.92	229.68
857.23	229.66
857.55	229.66
857.86	229.64
858.17	229.69
858.48	229.65
858.79	229.59
859.11	229.59
859.42	229.57
859.73	229.53
860.04	229.51
860.35	229.48
860.66	229.41
860.98	229.39
861.29	229.43
861.60	229.40
861.91	229.44
862.22	229.40
862.53	229.37
862.84	229.16
863.16	229.19
863.47	229.18
863.78	229.16
864.09	229.17
864.40	229.19
864.71	229.16
865.02	229.19
865.33	229.17
865.64	229.12
865.95	229.13
866.27	229.23
866.58	229.20
866.89	229.21
867.20	229.22
867.51	229.20
867.82	229.18
868.13	229.22
868.44	229.19
868.75	229.23
869.06	229.24
869.37	229.25
869.68	229.21
869.99	229.21
870.30	229.20
870.61	229.21
870.92	229.15
871.23	229.15
871.54	229.15
871.85	229.20
872.16	229.24
872.47	229.23
872.78	229.14
873.09	229.16
873.40	229.15
873.71	229.14
874.02	229.16
874.33	229.13
874.64	229.11
874.95	229.12
875.26	229.07
875.56	229.08
875.87	229.05
876.18	229.05
876.49	229.23
876.80	229.22
877.11	229.20
877.42	229.23
877.73	229.24
878.04	229.21
878.35	229.21
878.66	229.21
878.96	229.19
879.27	229.19
879.58	229.16
879.89	229.15
880.20	229.20
880.51	229.18
880.82	229.19
881.12	229.19
881.43	229.17
881.74	229.14
882.05	229.12
882.36	229.15
882.67	229.14
882.97	228.96
883.28	228.93
883.59	228.93
883.90	228.94
884.21	228.97
884.51	228.96
884.82	228.94
885.13	228.95
885.44	228.93
885.74	228.93
886.05	228.93
886.36	228.93
886.67	228.87
886.98	228.95
887.28	228.96
887.59	228.97
887.90	228.98
888.20	228.98
888.51	229.02
888.82	228.98
889.13	229.01
889.43	229.15
889.74	229.17
890.05	229.17
890.35	229.14
890.66	229.11
890.97	229.09
891.28	229.06
891.58	229.06
891.89	229.07
892.20	229.05
892.50	229.05
892.81	229.05
893.12	229.04
893.42	228.96
893.73	228.97
894.04	228.97
894.34	228.96
894.65	228.96
894.95	228.94
895.26	228.95
895.57	229.01
895.87	228.83
896.18	228.85
896.48	228.85
896.79	228.84
897.10	228.86
897.40	228.88
897.71	228.89
898.01	228.88
898.32	228.90
898.63	228.88
898.93	228.90
899.24	228.90
899.54	228.90
899.85	228.90
900.15	228.87
900.46	228.84
900.76	228.86
901.07	228.85
901.38	228.84
901.68	228.87
901.99	228.79
902.29	228.81
902.60	228.79
902.90	228.77
903.21	228.78
903.51	228.75
903.82	228.77
904.12	228.77
904.43	228.77
904.73	228.75
905.03	228.77
905.34	228.93
905.64	228.91
905.95	228.91
906.25	228.90
906.56	228.90
906.86	228.92
907.17	228.91
907.47	228.94
907.77	228.92
908.08	228.89
908.38	228.90
908.69	228.90
908.99	228.93
909.30	228.94
909.60	228.94
909.90	228.95
910.21	228.90
910.51	228.88
910.81	228.91
911.12	228.92
911.42	228.92
911.73	228.72
912.03	228.73
912.33	228.76
912.64	228.75
912.94	228.74
913.24	228.70
913.55	228.71
913.85	228.68
914.15	228.70
914.46	228.70
914.76	228.69
915.06	228.69
915.37	228.67
915.67	228.66
915.97	228.66
916.27	228.64
916.58	228.64
916.88	228.63
917.18	228.59
917.49	228.71
917.79	228.71
918.09	228.75
918.39	228.79
918.70	228.79
919.00	228.81
919.30	228.91
919.60	228.91
919.91	228.88
920.21	228.91
920.51	228.89
920.81	228.88
921.12	228.90
921.42	228.89
921.72	228.89
922.02	228.93
922.32	228.94
922.63	228.94
922.93	229.05
923.23	229.08
923.53	229.07
923.83	228.95
924.13	228.97
924.44	228.98
924.74	229.01
925.04	229.05
925.34	229.04
925.64	228.96
925.94	228.97
926.24	229.07
926.55	229.05
926.85	229.06
927.15	229.07
927.45	229.07
927.75	229.08
928.05	229.09
928.35	229.05
928.65	229.08
928.95	229.10
929.26	228.99
929.56	229.01
929.86	229.03
930.16	229.01
930.46	228.98
930.76	228.97
931.06	228.88
931.36	228.83
931.66	228.84
931.96	228.86
932.26	228.87
932.56	228.80
932.86	228.82
933.16	228.82
933.46	228.82
933.76	228.80
934.06	228.82
934.36	228.88
934.66	228.88
934.96	228.85
935.26	228.87
935.56	228.92
935.86	228.88
936.16	228.86
936.46	228.85
936.76	228.85
937.06	228.83
937.36	228.87
937.66	228.89
937.96	228.88
938.26	228.84
938.56	228.82
938.86	228.82
939.16	228.87
939.46	228.88
939.76	228.87
940.06	228.87
940.35	228.84
940.65	228.74
940.95	228.76
941.25	228.72
941.55	228.69
941.85	228.67
942.15	228.71
942.45	228.74
942.75	228.75
943.04	228.74
943.34	228.77
943.64	228.75
943.94	228.72
944.24	228.73
944.54	228.75
944.84	228.74
945.13	228.72
945.43	228.69
945.73	228.69
946.03	228.68
946.33	228.65
946.62	228.64
946.92	228.67
947.22	228.68
947.52	228.69
947.82	228.72
948.11	228.70
948.41	228.65
948.71	228.62
949.01	228.63
949.31	228.62
949.60	228.59
949.90	228.62
950.20	228.62
950.50	228.59
950.79	228.58
951.09	228.61
951.39	228.61
951.69	228.57
951.98	228.60
952.28	228.61
952.58	228.61
952.87	228.62
953.17	228.64
953.47	228.61
953.76	228.61
954.06	228.56
954.36	228.54
954.66	228.54
954.95	228.58
955.25	228.60
955.55	228.61
955.84	228.60
956.14	228.61
956.44	228.61
956.73	228.60
957.03	228.61
957.32	228.59
957.62	228.58
957.92	228.63
958.21	228.62
958.51	228.83
958.81	228.85
959.10	228.87
959.40	228.90
959.69	228.91
959.99	228.94
960.29	228.96
960.58	228.95
960.88	229.02
961.17	229.02
961.47	229.02
961.76	229.00
962.06	229.02
962.36	229.00
962.65	229.02
962.95	229.05
963.24	229.04
963.54	229.05
963.83	229.06
964.13	229.04
964.42	229.02
964.72	228.87
965.01	228.85
965.31	228.84
965.60	228.78
965.90	228.88
966.19	228.84
966.49	228.85
966.78	228.86
967.08	228.83
967.37	228.83
967.67	228.79
967.96	228.83
968.26	228.82
968.55	228.84
968.85	228.81
969.14	228.79
969.43	228.77
969.73	228.76
970.02	228.74
970.32	228.73
970.61	228.70
970.91	228.64
971.20	228.63
971.49	228.61
971.79	228.65
972.08	228.51
972.38	228.54
972.67	228.53
972.96	228.54
973.26	228.50
973.55	228.55
973.85	228.54
974.14	228.51
974.43	228.53
974.73	228.49
975.02	228.49
975.31	228.50
975.61	228.51
975.90	228.48
976.19	228.47
976.49	228.50
976.78	228.52
977.07	228.53
977.37	228.54
977.66	228.55
977.95	228.52
978.24	228.55
978.54	228.57
978.83	228.56
979.12	228.57
979.42	228.57
979.71	228.54
980.00	228.54
980.29	228.56
980.59	228.53
980.88	228.59
981.17	228.58
981.46	228.59
981.76	228.59
982.05	228.65
982.34	228.67
982.63	228.68
982.93	228.68
983.22	228.70
983.51	228.72
983.80	228.76
984.09	228.81
984.39	228.82
984.68	228.78
984.97	228.79
985.26	228.77
985.55	228.79
985.85	228.75
986.14	228.78
986.43	228.81
986.72	228.81
987.01	228.75
987.30	228.74
987.59	228.73
987.89	228.74
988.18	228.69
988.47	228.67
988.76	228.63
989.05	228.62
989.34	228.59
989.63	228.64
989.92	228.61
990.22	228.55
990.51	228.54
990.80	228.53
991.09	228.54
991.38	228.56
991.67	228.55
991.96	228.54
992.25	228.54
992.54	228.49
992.83	228.50
993.12	228.51
993.41	228.55
993.70	228.63
993.99	228.64
994.28	228.67
994.58	228.69
994.87	228.69
995.16	228.68
995.45	228.68
995.74	228.60
996.03	228.63
996.32	228.67
996.61	228.70
996.90	228.71
997.19	228.71
997.48	228.71
997.77	228.70
998.06	228.73
998.34	228.72
998.63	228.73
998.92	228.73
999.21	228.75
999.50	228.75
999.79	228.70
1000.08	228.71
1000.37	228.71
1000.66	228.70
1000.95	228.75
1001.24	228.76
1001.53	228.79
1001.82	228.80
1002.11	228.74
1002.40	228.75
1002.68	228.79
1002.97	228.92
1003.26	228.89
1003.55	228.85
1003.84	228.86
1004.13	228.92
1004.42	228.89
1004.71	228.88
1004.99	228.87
1005.28	228.91
1005.57	228.88
1005.86	228.85
1006.15	228.81
1006.44	228.79
1006.72	228.81
1007.01	228.77
1007.30	228.77
1007.59	228.73
1007.88	228.72
1008.17	228.73
1008.45	228.69
1008.74	228.61
1009.03	228.52
1009.32	228.53
1009.60	228.53
1009.89	228.51
1010.18	228.43
1010.47	228.43
1010.76	228.41
1011.04	228.40
1011.33	228.37
1011.62	228.38
1011.91	228.39
1012.19	228.40
1012.48	228.38
1012.77	228.37
1013.05	228.43
1013.34	228.44
1013.63	228.44
1013.92	228.47
1014.20	228.45
1014.49	228.47
1014.78	228.48
1015.06	228.42
1015.35	228.42
1015.64	228.44
1015.92	228.47
1016.21	228.48
1016.50	228.47
1016.78	228.51
1017.07	228.53
1017.36	228.51
1017.64	228.49
1017.93	228.51
1018.22	228.49
1018.50	228.50
1018.79	228.49
1019.08	228.43
1019.36	228.44
1019.65	228.42
1019.93	228.46
1020.22	228.48
1020.51	228.56
1020.79	228.53
1021.08	228.19
1021.36	228.08
1021.65	228.54
1021.94	228.44
1022.22	228.71
1022.51	228.15
1022.79	229.32
1023.08	228.61
1023.36	230.44
1023.65	227.97
>>>>>End Processed Spectral Data<<<<<
