SpectraSuite Data File
++++++++++++++++++++++++++++++++++++
Date: Tue Oct 06 15:05:43 EDT 2015
User: lab3
Dark Spectrum Present: No
Reference Spectrum Present: No
Number of Sampled Component Spectra: 1
Spectrometers: USB2E7196
Integration Time (usec): 66000 (USB2E7196)
Spectra Averaged: 1000 (USB2E7196)
Boxcar Smoothing: 10 (USB2E7196)
Correct for Electrical Dark: No (USB2E7196)
Strobe/Lamp Enabled: No (USB2E7196)
Correct for Detector Non-linearity: No (USB2E7196)
Correct for Stray Light: No (USB2E7196)
Number of Pixels in Processed Spectrum: 2048
>>>>>Begin Processed Spectral Data<<<<<
339.09	0.00
339.48	215.06
339.86	216.58
340.24	218.02
340.63	219.33
341.01	223.56
341.39	222.17
341.78	223.61
342.16	225.04
342.54	225.16
342.93	213.66
343.31	224.45
343.69	224.99
344.07	225.46
344.46	225.89
344.84	226.30
345.22	226.49
345.60	226.76
345.99	226.97
346.37	227.10
346.75	227.21
347.13	227.30
347.52	227.39
347.90	227.50
348.28	227.56
348.66	227.64
349.05	227.62
349.43	227.69
349.81	227.76
350.19	227.83
350.57	227.89
350.96	227.99
351.34	228.10
351.72	228.21
352.10	228.32
352.48	228.40
352.87	228.45
353.25	228.51
353.63	228.57
354.01	228.63
354.39	228.71
354.77	228.79
355.15	228.91
355.54	228.95
355.92	228.96
356.30	229.02
356.68	229.20
357.06	229.28
357.44	229.32
357.82	229.37
358.20	229.59
358.58	229.65
358.97	229.71
359.35	229.79
359.73	229.88
360.11	229.93
360.49	229.98
360.87	230.03
361.25	230.10
361.63	230.21
362.01	230.27
362.39	230.29
362.77	230.34
363.15	230.35
363.53	230.39
363.91	230.42
364.29	230.45
364.67	230.30
365.05	230.32
365.43	230.36
365.81	230.40
366.19	230.34
366.57	230.42
366.95	230.42
367.33	230.38
367.71	230.38
368.09	230.40
368.47	230.40
368.85	230.39
369.23	230.41
369.61	230.32
369.99	230.35
370.37	230.36
370.75	230.47
371.13	230.43
371.51	230.38
371.89	230.36
372.27	230.35
372.65	230.34
373.03	230.30
373.41	230.26
373.78	230.20
374.16	230.09
374.54	229.99
374.92	229.92
375.30	229.89
375.68	229.80
376.06	229.75
376.44	229.70
376.82	229.67
377.19	229.63
377.57	229.57
377.95	229.46
378.33	229.40
378.71	229.19
379.09	229.16
379.47	229.13
379.84	229.07
380.22	228.99
380.60	228.91
380.98	228.86
381.36	228.81
381.73	228.75
382.11	228.73
382.49	228.70
382.87	228.65
383.25	228.61
383.62	228.78
384.00	228.72
384.38	228.69
384.76	228.68
385.13	228.69
385.51	228.67
385.89	228.61
386.27	228.58
386.64	228.58
387.02	228.52
387.40	228.48
387.78	228.47
388.15	228.45
388.53	228.43
388.91	228.41
389.29	228.37
389.66	228.38
390.04	228.34
390.42	228.35
390.79	228.35
391.17	228.34
391.55	228.11
391.92	228.10
392.30	228.11
392.68	228.08
393.05	228.07
393.43	228.07
393.81	228.11
394.18	228.09
394.56	228.10
394.94	228.16
395.31	228.17
395.69	228.24
396.06	228.29
396.44	228.33
396.82	228.36
397.19	228.50
397.57	228.53
397.95	228.60
398.32	228.59
398.70	228.67
399.07	228.78
399.45	228.84
399.82	228.91
400.20	228.97
400.58	229.07
400.95	229.08
401.33	229.22
401.70	229.45
402.08	229.60
402.45	229.72
402.83	229.90
403.20	230.06
403.58	230.20
403.95	230.40
404.33	230.63
404.71	230.84
405.08	231.14
405.46	231.38
405.83	231.66
406.21	231.96
406.58	232.28
406.96	232.59
407.33	232.98
407.70	233.41
408.08	233.99
408.45	234.50
408.83	235.04
409.20	235.54
409.58	236.00
409.95	236.62
410.33	237.30
410.70	237.94
411.08	238.70
411.45	239.51
411.82	240.33
412.20	241.26
412.57	242.37
412.95	243.26
413.32	244.41
413.69	245.59
414.07	246.84
414.44	248.21
414.82	249.62
415.19	251.26
415.56	252.93
415.94	254.66
416.31	256.61
416.68	258.58
417.06	260.83
417.43	262.95
417.81	265.38
418.18	267.88
418.55	270.59
418.93	273.42
419.30	276.39
419.67	279.55
420.04	282.77
420.42	286.15
420.79	290.04
421.16	293.98
421.54	297.95
421.91	302.12
422.28	306.46
422.66	311.13
423.03	315.56
423.40	320.21
423.77	325.19
424.15	330.28
424.52	335.56
424.89	341.28
425.26	346.97
425.64	352.25
426.01	358.17
426.38	364.21
426.75	370.43
427.13	376.78
427.50	383.42
427.87	390.33
428.24	397.28
428.61	403.93
428.99	411.09
429.36	418.99
429.73	426.53
430.10	434.00
430.47	441.67
430.85	449.60
431.22	458.06
431.59	466.73
431.96	475.17
432.33	484.56
432.70	493.50
433.08	504.09
433.45	514.06
433.82	523.89
434.19	534.93
434.56	545.78
434.93	556.32
435.30	566.77
435.68	578.66
436.05	590.27
436.42	601.86
436.79	612.50
437.16	624.03
437.53	636.39
437.90	648.80
438.27	660.93
438.64	674.03
439.01	685.93
439.38	696.87
439.75	707.49
440.13	719.56
440.50	731.02
440.87	740.19
441.24	750.25
441.61	761.28
441.98	769.40
442.35	779.09
442.72	788.95
443.09	798.32
443.46	804.46
443.83	809.12
444.20	813.04
444.57	818.67
444.94	822.04
445.31	825.44
445.68	828.39
446.05	830.62
446.42	830.38
446.79	829.90
447.16	829.52
447.53	829.15
447.90	825.65
448.27	822.27
448.64	816.93
449.01	813.27
449.37	805.73
449.74	798.93
450.11	790.05
450.48	780.30
450.85	770.52
451.22	762.09
451.59	753.82
451.96	746.36
452.33	735.44
452.70	725.75
453.07	714.05
453.43	702.36
453.80	690.95
454.17	680.00
454.54	669.83
454.91	658.38
455.28	647.60
455.65	637.39
456.02	626.66
456.38	618.03
456.75	606.96
457.12	597.96
457.49	588.87
457.86	580.30
458.23	572.74
458.59	564.41
458.96	555.84
459.33	548.30
459.70	540.63
460.07	534.77
460.43	527.88
460.80	521.41
461.17	515.74
461.54	509.66
461.91	503.95
462.27	498.18
462.64	493.43
463.01	488.02
463.38	482.59
463.74	477.68
464.11	473.31
464.48	469.35
464.85	465.12
465.21	461.85
465.58	458.21
465.95	454.09
466.32	450.79
466.68	447.58
467.05	444.32
467.42	441.17
467.78	437.79
468.15	434.68
468.52	432.38
468.88	429.37
469.25	426.62
469.62	424.45
469.98	422.07
470.35	419.96
470.72	418.05
471.08	416.10
471.45	414.44
471.82	412.58
472.18	410.66
472.55	409.41
472.92	407.86
473.28	406.67
473.65	405.38
474.02	404.15
474.38	403.11
474.75	402.49
475.11	401.63
475.48	401.23
475.85	400.80
476.21	400.56
476.58	400.36
476.94	400.52
477.31	400.55
477.67	400.63
478.04	400.93
478.41	401.34
478.77	401.93
479.14	402.30
479.50	403.10
479.87	404.09
480.23	405.07
480.60	406.01
480.96	406.95
481.33	408.38
481.69	409.81
482.06	411.20
482.42	412.50
482.79	414.10
483.15	415.95
483.52	418.05
483.88	420.05
484.25	422.17
484.61	424.42
484.98	426.83
485.34	429.55
485.71	432.35
486.07	435.36
486.44	438.37
486.80	441.74
487.17	445.16
487.53	448.89
487.90	452.79
488.26	457.05
488.62	461.51
488.99	465.97
489.35	470.64
489.72	475.69
490.08	480.99
490.44	486.42
490.81	492.06
491.17	497.84
491.54	504.02
491.90	510.40
492.26	517.19
492.63	524.27
492.99	531.67
493.36	539.28
493.72	547.26
494.08	555.43
494.45	563.96
494.81	572.87
495.17	582.05
495.54	591.70
495.90	601.81
496.26	612.12
496.63	622.65
496.99	633.59
497.35	645.02
497.72	656.75
498.08	668.80
498.44	681.19
498.80	694.26
499.17	707.68
499.53	721.46
499.89	735.68
500.26	750.08
500.62	764.81
500.98	780.34
501.34	795.95
501.71	812.26
502.07	828.87
502.43	845.92
502.79	863.14
503.16	880.94
503.52	898.87
503.88	917.20
504.24	936.02
504.60	955.09
504.97	974.70
505.33	994.70
505.69	1015.79
506.05	1036.94
506.41	1058.03
506.78	1079.22
507.14	1101.09
507.50	1123.43
507.86	1146.18
508.22	1169.02
508.59	1191.58
508.95	1215.20
509.31	1239.33
509.67	1264.09
510.03	1288.83
510.39	1313.45
510.75	1338.17
511.12	1363.19
511.48	1388.27
511.84	1413.37
512.20	1438.66
512.56	1464.78
512.92	1490.90
513.28	1516.42
513.64	1542.36
514.00	1568.55
514.37	1595.07
514.73	1621.50
515.09	1647.16
515.45	1673.06
515.81	1699.18
516.17	1724.99
516.53	1750.15
516.89	1775.25
517.25	1800.45
517.61	1825.49
517.97	1850.99
518.33	1875.79
518.69	1900.58
519.05	1925.65
519.41	1950.75
519.77	1975.86
520.13	1999.85
520.49	2023.87
520.85	2048.14
521.21	2071.75
521.57	2095.68
521.93	2118.49
522.29	2142.11
522.65	2165.41
523.01	2188.42
523.37	2210.93
523.73	2234.23
524.09	2257.03
524.45	2279.47
524.81	2301.36
525.17	2322.81
525.53	2343.75
525.89	2365.15
526.25	2385.99
526.61	2405.57
526.97	2425.10
527.33	2444.54
527.68	2463.32
528.04	2481.60
528.40	2498.68
528.76	2516.20
529.12	2533.13
529.48	2550.65
529.84	2565.77
530.20	2581.41
530.56	2596.06
530.91	2610.73
531.27	2624.68
531.63	2638.07
531.99	2650.81
532.35	2663.14
532.71	2675.09
533.07	2687.44
533.42	2697.95
533.78	2708.73
534.14	2720.28
534.50	2730.72
534.86	2741.70
535.21	2750.60
535.57	2759.35
535.93	2768.18
536.29	2775.57
536.65	2782.65
537.00	2787.91
537.36	2793.99
537.72	2799.15
538.08	2803.91
538.44	2807.42
538.79	2811.03
539.15	2813.29
539.51	2815.35
539.87	2816.43
540.22	2815.76
540.58	2815.07
540.94	2815.16
541.29	2814.29
541.65	2811.81
542.01	2809.14
542.37	2804.94
542.72	2802.52
543.08	2798.48
543.44	2794.55
543.79	2789.52
544.15	2784.03
544.51	2779.27
544.87	2773.30
545.22	2766.50
545.58	2759.52
545.94	2753.03
546.29	2745.12
546.65	2737.23
547.01	2729.10
547.36	2721.29
547.72	2713.80
548.07	2704.91
548.43	2695.00
548.79	2684.52
549.14	2674.58
549.50	2664.85
549.86	2654.25
550.21	2641.93
550.57	2630.75
550.92	2617.62
551.28	2605.18
551.64	2593.10
551.99	2580.59
552.35	2567.95
552.70	2555.17
553.06	2542.94
553.41	2530.33
553.77	2517.08
554.13	2504.06
554.48	2490.18
554.84	2475.52
555.19	2461.71
555.55	2447.64
555.90	2433.69
556.26	2420.55
556.61	2406.25
556.97	2390.76
557.32	2375.61
557.68	2360.90
558.03	2345.88
558.39	2331.79
558.74	2318.20
559.10	2302.85
559.45	2287.92
559.81	2273.73
560.16	2259.19
560.52	2244.42
560.87	2229.76
561.23	2214.78
561.58	2200.16
561.94	2185.17
562.29	2169.96
562.64	2154.72
563.00	2139.65
563.35	2124.98
563.71	2109.72
564.06	2094.70
564.42	2080.09
564.77	2065.59
565.12	2051.10
565.48	2036.51
565.83	2022.17
566.19	2007.94
566.54	1993.88
566.89	1978.93
567.25	1963.62
567.60	1949.18
567.96	1934.14
568.31	1917.77
568.66	1902.43
569.02	1887.75
569.37	1873.48
569.72	1859.72
570.08	1845.52
570.43	1830.82
570.78	1815.79
571.14	1800.67
571.49	1785.68
571.84	1771.27
572.20	1755.78
572.55	1740.81
572.90	1725.65
573.26	1710.52
573.61	1694.68
573.96	1679.37
574.31	1664.37
574.67	1649.46
575.02	1634.15
575.37	1618.75
575.72	1604.00
576.08	1589.30
576.43	1573.99
576.78	1558.92
577.13	1543.81
577.49	1529.06
577.84	1514.70
578.19	1499.99
578.54	1485.22
578.90	1470.49
579.25	1455.57
579.60	1441.71
579.95	1427.65
580.30	1413.67
580.66	1399.41
581.01	1385.46
581.36	1371.60
581.71	1358.14
582.06	1344.58
582.42	1330.90
582.77	1317.81
583.12	1305.02
583.47	1292.03
583.82	1279.34
584.17	1266.25
584.53	1253.28
584.88	1240.51
585.23	1227.64
585.58	1215.08
585.93	1202.61
586.28	1190.95
586.63	1179.09
586.98	1166.98
587.34	1155.20
587.69	1143.23
588.04	1131.68
588.39	1120.34
588.74	1108.70
589.09	1097.22
589.44	1085.45
589.79	1074.27
590.14	1063.08
590.49	1051.98
590.84	1041.20
591.19	1030.42
591.54	1019.77
591.89	1008.85
592.25	998.24
592.60	987.51
592.95	977.08
593.30	966.79
593.65	956.24
594.00	946.04
594.35	936.60
594.70	926.62
595.05	917.29
595.40	907.70
595.75	897.94
596.10	888.69
596.45	879.42
596.80	870.53
597.15	861.67
597.50	852.83
597.85	844.27
598.19	835.56
598.54	826.88
598.89	818.59
599.24	810.78
599.59	802.79
599.94	795.32
600.29	787.79
600.64	780.25
600.99	772.64
601.34	765.23
601.69	757.30
602.04	750.13
602.39	742.85
602.74	735.80
603.08	728.83
603.43	721.90
603.78	715.01
604.13	708.27
604.48	701.54
604.83	695.01
605.18	688.52
605.53	682.29
605.87	676.01
606.22	669.84
606.57	663.58
606.92	657.27
607.27	651.00
607.62	645.00
607.96	639.16
608.31	633.68
608.66	628.10
609.01	622.82
609.36	617.56
609.70	612.17
610.05	606.84
610.40	601.67
610.75	596.55
611.10	591.62
611.44	586.65
611.79	581.82
612.14	576.92
612.49	572.08
612.83	567.42
613.18	562.88
613.53	558.36
613.88	553.91
614.22	549.77
614.57	545.53
614.92	541.37
615.27	537.32
615.61	533.25
615.96	529.26
616.31	525.24
616.65	521.32
617.00	517.58
617.35	513.86
617.70	510.16
618.04	506.52
618.39	502.99
618.74	499.64
619.08	496.26
619.43	492.99
619.78	489.68
620.12	486.37
620.47	483.25
620.82	480.17
621.16	477.13
621.51	474.18
621.85	471.28
622.20	468.42
622.55	465.55
622.89	462.75
623.24	460.06
623.59	457.41
623.93	454.80
624.28	452.35
624.62	450.08
624.97	447.84
625.32	445.49
625.66	443.09
626.01	440.67
626.35	438.36
626.70	436.04
627.04	433.92
627.39	431.73
627.73	429.64
628.08	427.59
628.43	425.59
628.77	423.47
629.12	421.47
629.46	419.56
629.81	417.76
630.15	415.87
630.50	413.99
630.84	412.19
631.19	410.47
631.53	408.78
631.88	406.90
632.22	405.13
632.57	403.66
632.91	402.16
633.26	400.74
633.60	399.34
633.95	397.99
634.29	396.50
634.64	395.10
634.98	393.54
635.32	392.13
635.67	390.86
636.01	389.60
636.36	388.39
636.70	387.25
637.05	385.97
637.39	384.81
637.73	383.67
638.08	382.60
638.42	381.53
638.77	380.33
639.11	379.13
639.45	377.96
639.80	376.74
640.14	375.60
640.49	374.43
640.83	373.26
641.17	372.15
641.52	371.05
641.86	370.00
642.20	369.14
642.55	368.08
642.89	367.02
643.23	366.03
643.58	365.15
643.92	364.08
644.26	363.12
644.61	362.22
644.95	361.27
645.29	360.24
645.64	359.19
645.98	358.22
646.32	357.36
646.66	356.48
647.01	355.60
647.35	354.80
647.69	353.95
648.04	353.18
648.38	352.36
648.72	351.57
649.06	350.77
649.41	349.90
649.75	349.11
650.09	348.39
650.43	347.63
650.78	346.82
651.12	346.06
651.46	345.31
651.80	344.57
652.14	343.85
652.49	343.20
652.83	342.51
653.17	341.80
653.51	341.11
653.85	340.50
654.20	339.85
654.54	339.10
654.88	338.41
655.22	337.75
655.56	337.05
655.90	336.38
656.25	335.73
656.59	335.09
656.93	334.49
657.27	333.90
657.61	333.26
657.95	332.66
658.29	332.07
658.64	331.50
658.98	330.88
659.32	330.26
659.66	329.68
660.00	329.15
660.34	328.64
660.68	328.06
661.02	327.40
661.36	326.78
661.70	326.21
662.05	325.66
662.39	325.11
662.73	324.63
663.07	324.20
663.41	323.71
663.75	323.18
664.09	322.66
664.43	322.02
664.77	321.46
665.11	320.86
665.45	320.32
665.79	319.78
666.13	319.23
666.47	318.68
666.81	318.08
667.15	317.46
667.49	316.95
667.83	316.50
668.17	316.03
668.51	315.59
668.85	315.17
669.19	314.79
669.53	314.26
669.87	313.71
670.21	313.17
670.55	312.66
670.89	312.26
671.23	311.79
671.57	311.38
671.91	311.01
672.25	310.65
672.58	310.31
672.92	309.85
673.26	309.47
673.60	309.09
673.94	308.70
674.28	308.34
674.62	307.94
674.96	307.48
675.30	307.07
675.64	306.61
675.97	306.13
676.31	305.62
676.65	305.16
676.99	304.81
677.33	304.34
677.67	303.93
678.01	303.42
678.34	302.98
678.68	302.56
679.02	302.09
679.36	301.62
679.70	301.12
680.04	300.71
680.37	300.29
680.71	299.88
681.05	299.50
681.39	299.07
681.73	298.59
682.06	298.14
682.40	297.71
682.74	297.35
683.08	297.06
683.42	296.66
683.75	296.29
684.09	295.80
684.43	295.39
684.77	294.94
685.10	294.55
685.44	294.13
685.78	293.71
686.12	293.32
686.45	292.90
686.79	292.48
687.13	292.08
687.46	291.62
687.80	291.17
688.14	290.68
688.48	290.24
688.81	289.82
689.15	289.47
689.49	289.03
689.82	288.58
690.16	288.01
690.50	287.57
690.83	287.13
691.17	286.67
691.51	286.23
691.84	285.86
692.18	285.43
692.52	284.98
692.85	284.53
693.19	284.15
693.52	283.73
693.86	283.30
694.20	282.86
694.53	282.44
694.87	281.99
695.21	281.55
695.54	281.12
695.88	280.69
696.21	280.20
696.55	279.76
696.88	279.31
697.22	278.89
697.56	278.47
697.89	277.99
698.23	277.60
698.56	277.17
698.90	276.75
699.23	276.28
699.57	275.88
699.90	275.46
700.24	274.99
700.58	274.59
700.91	274.24
701.25	273.99
701.58	273.69
701.92	273.36
702.25	272.99
702.59	272.60
702.92	272.22
703.26	271.82
703.59	271.44
703.93	271.20
704.26	270.85
704.60	270.46
704.93	270.09
705.26	269.69
705.60	269.35
705.93	268.92
706.27	268.64
706.60	268.32
706.94	268.02
707.27	267.63
707.61	267.27
707.94	266.87
708.27	266.34
708.61	265.89
708.94	265.48
709.28	265.12
709.61	264.74
709.94	264.41
710.28	264.08
710.61	263.76
710.95	263.27
711.28	263.04
711.61	262.71
711.95	262.43
712.28	262.10
712.61	261.74
712.95	261.53
713.28	261.27
713.61	260.90
713.95	260.53
714.28	260.23
714.61	259.90
714.95	259.58
715.28	259.26
715.61	258.98
715.95	258.73
716.28	258.41
716.61	258.17
716.95	257.86
717.28	257.56
717.61	257.26
717.94	256.98
718.28	256.58
718.61	256.28
718.94	255.97
719.27	255.70
719.61	255.46
719.94	255.14
720.27	254.78
720.60	254.52
720.94	254.24
721.27	254.00
721.60	253.76
721.93	253.50
722.27	253.30
722.60	253.05
722.93	252.76
723.26	252.55
723.59	252.27
723.93	252.04
724.26	251.82
724.59	251.58
724.92	251.36
725.25	251.18
725.59	250.96
725.92	250.76
726.25	250.55
726.58	250.32
726.91	250.08
727.24	249.88
727.57	249.65
727.91	249.41
728.24	249.21
728.57	249.00
728.90	248.81
729.23	248.56
729.56	248.43
729.89	248.23
730.22	248.01
730.55	247.81
730.89	247.61
731.22	247.40
731.55	247.21
731.88	247.02
732.21	246.80
732.54	246.61
732.87	246.42
733.20	246.24
733.53	246.07
733.86	245.91
734.19	245.70
734.52	245.57
734.85	245.55
735.18	245.34
735.51	245.23
735.84	245.07
736.17	244.95
736.50	244.70
736.83	244.74
737.16	244.58
737.49	244.43
737.82	244.26
738.15	244.13
738.48	243.97
738.81	243.79
739.14	243.63
739.47	243.46
739.80	243.29
740.13	243.15
740.46	242.96
740.79	242.78
741.12	242.62
741.45	242.43
741.78	242.17
742.11	242.07
742.44	241.87
742.77	241.74
743.10	241.57
743.43	241.41
743.75	241.09
744.08	241.22
744.41	241.06
744.74	240.91
745.07	240.73
745.40	240.63
745.73	240.57
746.06	240.45
746.39	240.33
746.71	240.20
747.04	240.05
747.37	239.92
747.70	239.81
748.03	239.69
748.36	239.59
748.68	239.45
749.01	239.27
749.34	239.16
749.67	239.04
750.00	238.93
750.33	238.95
750.65	238.85
750.98	238.47
751.31	238.36
751.64	238.28
751.97	238.27
752.29	238.12
752.62	237.93
752.95	237.80
753.28	237.67
753.60	237.55
753.93	237.49
754.26	237.40
754.59	237.23
754.91	237.10
755.24	236.98
755.57	236.89
755.90	236.78
756.22	236.66
756.55	236.53
756.88	236.39
757.20	236.16
757.53	236.00
757.86	235.90
758.19	235.81
758.51	235.70
758.84	235.51
759.17	235.41
759.49	235.33
759.82	235.33
760.15	235.25
760.47	235.16
760.80	235.02
761.13	234.96
761.45	234.88
761.78	234.80
762.11	234.73
762.43	234.63
762.76	234.54
763.08	234.49
763.41	234.42
763.74	234.36
764.06	234.27
764.39	234.19
764.71	234.10
765.04	234.02
765.37	233.92
765.69	233.84
766.02	233.77
766.34	233.70
766.67	233.56
767.00	233.51
767.32	233.55
767.65	233.60
767.97	233.50
768.30	233.45
768.62	233.37
768.95	233.29
769.27	233.22
769.60	233.19
769.92	233.09
770.25	232.98
770.57	232.90
770.90	232.85
771.22	232.79
771.55	232.74
771.87	232.68
772.20	232.64
772.52	232.74
772.85	232.90
773.17	232.83
773.50	232.76
773.82	232.68
774.15	232.54
774.47	232.37
774.80	232.30
775.12	232.26
775.45	232.22
775.77	232.19
776.09	232.16
776.42	232.11
776.74	232.12
777.07	232.08
777.39	232.05
777.72	232.00
778.04	231.99
778.36	231.94
778.69	231.91
779.01	231.87
779.33	231.67
779.66	231.43
779.98	231.39
780.31	231.37
780.63	231.41
780.95	231.40
781.28	231.38
781.60	231.33
781.92	231.30
782.25	231.26
782.57	231.23
782.89	231.19
783.22	231.14
783.54	231.07
783.86	231.05
784.19	231.01
784.51	231.03
784.83	230.98
785.16	230.94
785.48	230.91
785.80	230.88
786.12	230.85
786.45	230.82
786.77	230.81
787.09	230.77
787.42	230.65
787.74	230.63
788.06	230.61
788.38	230.57
788.71	230.52
789.03	230.51
789.35	230.49
789.67	230.44
789.99	230.44
790.32	230.38
790.64	230.37
790.96	230.51
791.28	230.41
791.61	230.37
791.93	230.36
792.25	230.33
792.57	230.42
792.89	230.38
793.21	230.36
793.54	230.33
793.86	230.28
794.18	230.28
794.50	230.23
794.82	230.20
795.14	230.22
795.47	230.23
795.79	230.20
796.11	230.14
796.43	230.11
796.75	230.08
797.07	230.06
797.39	230.03
797.71	229.86
798.04	229.86
798.36	229.87
798.68	229.84
799.00	229.83
799.32	229.73
799.64	229.73
799.96	229.72
800.28	229.72
800.60	229.69
800.92	229.68
801.24	229.65
801.56	229.64
801.89	229.59
802.21	229.59
802.53	229.54
802.85	229.56
803.17	229.63
803.49	229.59
803.81	229.57
804.13	229.54
804.45	229.51
804.77	229.50
805.09	229.47
805.41	229.44
805.73	229.39
806.05	229.31
806.37	229.28
806.69	229.25
807.01	229.22
807.33	229.23
807.65	229.16
807.97	229.22
808.28	229.19
808.60	229.17
808.92	229.12
809.24	229.22
809.56	229.17
809.88	229.10
810.20	229.09
810.52	229.10
810.84	229.06
811.16	229.03
811.48	228.99
811.80	229.04
812.12	229.03
812.43	229.05
812.75	229.06
813.07	229.03
813.39	229.02
813.71	228.98
814.03	228.95
814.35	228.94
814.67	228.85
814.98	228.83
815.30	228.81
815.62	228.78
815.94	228.64
816.26	228.65
816.58	228.60
816.89	228.60
817.21	228.55
817.53	228.55
817.85	228.56
818.17	228.55
818.48	228.46
818.80	228.48
819.12	228.43
819.44	228.40
819.76	228.37
820.07	228.35
820.39	228.35
820.71	228.35
821.03	228.35
821.34	228.32
821.66	228.35
821.98	228.36
822.30	228.35
822.61	228.46
822.93	228.42
823.25	228.42
823.57	228.39
823.88	228.41
824.20	228.39
824.52	228.41
824.83	228.40
825.15	228.38
825.47	228.36
825.79	228.39
826.10	228.37
826.42	228.37
826.74	228.38
827.05	228.37
827.37	228.37
827.69	228.34
828.00	228.35
828.32	228.33
828.64	228.30
828.95	228.39
829.27	228.33
829.58	228.32
829.90	228.34
830.22	228.36
830.53	228.32
830.85	228.30
831.17	228.24
831.48	228.24
831.80	228.24
832.11	228.23
832.43	228.19
832.75	228.18
833.06	228.28
833.38	228.24
833.69	228.22
834.01	228.22
834.32	228.22
834.64	228.19
834.96	228.19
835.27	228.19
835.59	228.10
835.90	228.08
836.22	228.07
836.53	228.03
836.85	228.01
837.16	228.18
837.48	228.17
837.79	228.22
838.11	228.23
838.42	228.23
838.74	228.24
839.05	228.22
839.37	228.22
839.68	228.10
840.00	228.08
840.31	228.11
840.63	228.08
840.94	228.05
841.26	228.03
841.57	228.02
841.88	228.03
842.20	228.01
842.51	227.98
842.83	227.97
843.14	228.13
843.46	228.12
843.77	228.01
844.08	228.01
844.40	227.95
844.71	227.93
845.03	227.90
845.34	227.87
845.65	227.86
845.97	227.86
846.28	227.87
846.60	227.88
846.91	227.83
847.22	227.83
847.54	227.86
847.85	227.87
848.16	227.85
848.48	227.81
848.79	227.86
849.10	227.88
849.42	227.89
849.73	227.71
850.04	227.72
850.36	227.65
850.67	227.68
850.98	227.68
851.30	227.69
851.61	227.70
851.92	227.69
852.23	227.74
852.55	227.74
852.86	227.74
853.17	227.75
853.49	227.80
853.80	227.83
854.11	227.84
854.42	227.86
854.74	227.84
855.05	227.86
855.36	227.77
855.67	227.77
855.99	227.77
856.30	227.98
856.61	227.97
856.92	227.97
857.23	227.97
857.55	227.94
857.86	227.92
858.17	227.93
858.48	227.90
858.79	227.86
859.11	227.87
859.42	227.86
859.73	227.84
860.04	227.83
860.35	227.77
860.66	227.70
860.98	227.69
861.29	227.71
861.60	227.69
861.91	227.73
862.22	227.70
862.53	227.67
862.84	227.47
863.16	227.50
863.47	227.47
863.78	227.44
864.09	227.45
864.40	227.46
864.71	227.48
865.02	227.51
865.33	227.49
865.64	227.45
865.95	227.45
866.27	227.56
866.58	227.53
866.89	227.56
867.20	227.56
867.51	227.53
867.82	227.51
868.13	227.57
868.44	227.53
868.75	227.56
869.06	227.57
869.37	227.59
869.68	227.54
869.99	227.56
870.30	227.58
870.61	227.60
870.92	227.58
871.23	227.55
871.54	227.58
871.85	227.62
872.16	227.65
872.47	227.64
872.78	227.54
873.09	227.56
873.40	227.54
873.71	227.56
874.02	227.58
874.33	227.56
874.64	227.52
874.95	227.55
875.26	227.52
875.56	227.51
875.87	227.50
876.18	227.51
876.49	227.70
876.80	227.67
877.11	227.64
877.42	227.65
877.73	227.66
878.04	227.62
878.35	227.62
878.66	227.61
878.96	227.60
879.27	227.59
879.58	227.59
879.89	227.57
880.20	227.62
880.51	227.62
880.82	227.64
881.12	227.64
881.43	227.61
881.74	227.58
882.05	227.58
882.36	227.59
882.67	227.59
882.97	227.39
883.28	227.38
883.59	227.39
883.90	227.41
884.21	227.43
884.51	227.42
884.82	227.39
885.13	227.38
885.44	227.38
885.74	227.39
886.05	227.37
886.36	227.38
886.67	227.31
886.98	227.39
887.28	227.40
887.59	227.40
887.90	227.40
888.20	227.40
888.51	227.44
888.82	227.41
889.13	227.42
889.43	227.57
889.74	227.57
890.05	227.57
890.35	227.54
890.66	227.50
890.97	227.49
891.28	227.48
891.58	227.49
891.89	227.50
892.20	227.47
892.50	227.46
892.81	227.44
893.12	227.44
893.42	227.35
893.73	227.36
894.04	227.37
894.34	227.39
894.65	227.37
894.95	227.36
895.26	227.36
895.57	227.45
895.87	227.26
896.18	227.28
896.48	227.29
896.79	227.28
897.10	227.31
897.40	227.33
897.71	227.35
898.01	227.33
898.32	227.35
898.63	227.35
898.93	227.36
899.24	227.36
899.54	227.35
899.85	227.34
900.15	227.32
900.46	227.31
900.76	227.30
901.07	227.31
901.38	227.28
901.68	227.31
901.99	227.21
902.29	227.23
902.60	227.21
902.90	227.19
903.21	227.19
903.51	227.17
903.82	227.21
904.12	227.21
904.43	227.22
904.73	227.20
905.03	227.20
905.34	227.37
905.64	227.36
905.95	227.37
906.25	227.36
906.56	227.36
906.86	227.35
907.17	227.34
907.47	227.35
907.77	227.34
908.08	227.29
908.38	227.30
908.69	227.32
908.99	227.35
909.30	227.35
909.60	227.35
909.90	227.35
910.21	227.28
910.51	227.24
910.81	227.24
911.12	227.25
911.42	227.25
911.73	227.06
912.03	227.08
912.33	227.11
912.64	227.10
912.94	227.07
913.24	227.05
913.55	227.03
913.85	227.02
914.15	227.06
914.46	227.09
914.76	227.08
915.06	227.06
915.37	227.03
915.67	227.02
915.97	227.02
916.27	226.99
916.58	227.01
916.88	227.01
917.18	227.00
917.49	227.11
917.79	227.09
918.09	227.12
918.39	227.16
918.70	227.14
919.00	227.16
919.30	227.25
919.60	227.24
919.91	227.22
920.21	227.24
920.51	227.20
920.81	227.18
921.12	227.20
921.42	227.20
921.72	227.21
922.02	227.21
922.32	227.24
922.63	227.25
922.93	227.34
923.23	227.35
923.53	227.33
923.83	227.22
924.13	227.24
924.44	227.23
924.74	227.25
925.04	227.29
925.34	227.28
925.64	227.20
925.94	227.21
926.24	227.33
926.55	227.31
926.85	227.33
927.15	227.33
927.45	227.33
927.75	227.33
928.05	227.33
928.35	227.34
928.65	227.35
928.95	227.36
929.26	227.28
929.56	227.32
929.86	227.35
930.16	227.34
930.46	227.32
930.76	227.31
931.06	227.23
931.36	227.18
931.66	227.21
931.96	227.24
932.26	227.25
932.56	227.17
932.86	227.18
933.16	227.18
933.46	227.16
933.76	227.14
934.06	227.17
934.36	227.23
934.66	227.22
934.96	227.19
935.26	227.21
935.56	227.24
935.86	227.19
936.16	227.16
936.46	227.14
936.76	227.14
937.06	227.13
937.36	227.15
937.66	227.15
937.96	227.13
938.26	227.09
938.56	227.07
938.86	227.08
939.16	227.12
939.46	227.12
939.76	227.13
940.06	227.13
940.35	227.10
940.65	227.00
940.95	227.01
941.25	226.96
941.55	226.93
941.85	226.90
942.15	226.95
942.45	227.01
942.75	227.00
943.04	227.01
943.34	227.05
943.64	227.03
943.94	227.02
944.24	227.01
944.54	227.04
944.84	227.03
945.13	227.00
945.43	226.96
945.73	226.95
946.03	226.92
946.33	226.90
946.62	226.87
946.92	226.88
947.22	226.90
947.52	226.91
947.82	226.93
948.11	226.92
948.41	226.89
948.71	226.83
949.01	226.85
949.31	226.83
949.60	226.81
949.90	226.84
950.20	226.83
950.50	226.82
950.79	226.80
951.09	226.83
951.39	226.83
951.69	226.82
951.98	226.85
952.28	226.87
952.58	226.88
952.87	226.90
953.17	226.92
953.47	226.89
953.76	226.89
954.06	226.86
954.36	226.84
954.66	226.84
954.95	226.88
955.25	226.89
955.55	226.90
955.84	226.87
956.14	226.89
956.44	226.89
956.73	226.87
957.03	226.89
957.32	226.89
957.62	226.88
957.92	226.92
958.21	226.91
958.51	227.11
958.81	227.13
959.10	227.14
959.40	227.18
959.69	227.19
959.99	227.21
960.29	227.22
960.58	227.21
960.88	227.28
961.17	227.26
961.47	227.27
961.76	227.26
962.06	227.29
962.36	227.27
962.65	227.28
962.95	227.29
963.24	227.27
963.54	227.27
963.83	227.29
964.13	227.28
964.42	227.25
964.72	227.11
965.01	227.11
965.31	227.09
965.60	227.04
965.90	227.16
966.19	227.13
966.49	227.13
966.78	227.13
967.08	227.11
967.37	227.12
967.67	227.08
967.96	227.11
968.26	227.10
968.55	227.12
968.85	227.11
969.14	227.11
969.43	227.11
969.73	227.10
970.02	227.08
970.32	227.08
970.61	227.06
970.91	227.01
971.20	226.99
971.49	226.98
971.79	227.01
972.08	226.89
972.38	226.90
972.67	226.89
972.96	226.91
973.26	226.87
973.55	226.92
973.85	226.92
974.14	226.89
974.43	226.90
974.73	226.87
975.02	226.86
975.31	226.85
975.61	226.84
975.90	226.83
976.19	226.81
976.49	226.82
976.78	226.83
977.07	226.83
977.37	226.85
977.66	226.86
977.95	226.84
978.24	226.85
978.54	226.88
978.83	226.87
979.12	226.86
979.42	226.87
979.71	226.83
980.00	226.83
980.29	226.84
980.59	226.82
980.88	226.86
981.17	226.86
981.46	226.86
981.76	226.88
982.05	226.93
982.34	226.96
982.63	226.95
982.93	226.95
983.22	226.99
983.51	226.99
983.80	227.02
984.09	227.03
984.39	227.02
984.68	227.00
984.97	227.01
985.26	227.00
985.55	227.02
985.85	226.99
986.14	227.03
986.43	227.05
986.72	227.04
987.01	226.98
987.30	226.99
987.59	226.99
987.89	226.99
988.18	226.93
988.47	226.92
988.76	226.92
989.05	226.91
989.34	226.88
989.63	226.93
989.92	226.90
990.22	226.88
990.51	226.87
990.80	226.86
991.09	226.89
991.38	226.90
991.67	226.89
991.96	226.88
992.25	226.87
992.54	226.85
992.83	226.85
993.12	226.85
993.41	226.88
993.70	226.94
993.99	226.96
994.28	226.98
994.58	227.00
994.87	226.98
995.16	226.97
995.45	226.96
995.74	226.89
996.03	226.92
996.32	226.95
996.61	226.99
996.90	226.99
997.19	226.98
997.48	226.99
997.77	226.97
998.06	226.98
998.34	226.97
998.63	226.97
998.92	226.99
999.21	227.02
999.50	227.02
999.79	226.96
1000.08	226.96
1000.37	226.97
1000.66	226.95
1000.95	226.99
1001.24	227.01
1001.53	227.03
1001.82	227.04
1002.11	226.99
1002.40	226.99
1002.68	227.02
1002.97	227.15
1003.26	227.12
1003.55	227.09
1003.84	227.10
1004.13	227.15
1004.42	227.13
1004.71	227.13
1004.99	227.10
1005.28	227.13
1005.57	227.13
1005.86	227.11
1006.15	227.09
1006.44	227.07
1006.72	227.08
1007.01	227.07
1007.30	227.06
1007.59	227.04
1007.88	227.03
1008.17	227.05
1008.45	227.01
1008.74	226.94
1009.03	226.86
1009.32	226.87
1009.60	226.87
1009.89	226.86
1010.18	226.78
1010.47	226.77
1010.76	226.77
1011.04	226.77
1011.33	226.76
1011.62	226.76
1011.91	226.79
1012.19	226.79
1012.48	226.79
1012.77	226.79
1013.05	226.84
1013.34	226.84
1013.63	226.83
1013.92	226.84
1014.20	226.82
1014.49	226.85
1014.78	226.86
1015.06	226.81
1015.35	226.81
1015.64	226.84
1015.92	226.86
1016.21	226.89
1016.50	226.88
1016.78	226.91
1017.07	226.92
1017.36	226.89
1017.64	226.86
1017.93	226.87
1018.22	226.84
1018.50	226.84
1018.79	226.84
1019.08	226.78
1019.36	226.79
1019.65	226.77
1019.93	226.81
1020.22	226.85
1020.51	226.93
1020.79	226.92
1021.08	226.42
1021.36	226.57
1021.65	226.84
1021.94	226.71
1022.22	227.04
1022.51	226.39
1022.79	227.58
1023.08	227.20
1023.36	228.94
1023.65	226.52
>>>>>End Processed Spectral Data<<<<<
