SpectraSuite Data File
++++++++++++++++++++++++++++++++++++
Date: Tue Oct 06 17:44:06 EDT 2015
User: lab3
Dark Spectrum Present: No
Reference Spectrum Present: No
Number of Sampled Component Spectra: 1
Spectrometers: USB2E7196
Integration Time (usec): 66000 (USB2E7196)
Spectra Averaged: 3000 (USB2E7196)
Boxcar Smoothing: 10 (USB2E7196)
Correct for Electrical Dark: No (USB2E7196)
Strobe/Lamp Enabled: No (USB2E7196)
Correct for Detector Non-linearity: No (USB2E7196)
Correct for Stray Light: No (USB2E7196)
Number of Pixels in Processed Spectrum: 2048
>>>>>Begin Processed Spectral Data<<<<<
339.09	0.00
339.48	215.24
339.86	216.67
340.24	217.98
340.63	219.40
341.01	223.49
341.39	222.12
341.78	223.64
342.16	224.93
342.54	225.18
342.93	213.65
343.31	224.45
343.69	224.99
344.07	225.45
344.46	225.90
344.84	226.30
345.22	226.50
345.60	226.78
345.99	226.99
346.37	227.13
346.75	227.25
347.13	227.33
347.52	227.43
347.90	227.55
348.28	227.61
348.66	227.68
349.05	227.68
349.43	227.75
349.81	227.83
350.19	227.90
350.57	227.98
350.96	228.09
351.34	228.20
351.72	228.31
352.10	228.43
352.48	228.50
352.87	228.55
353.25	228.62
353.63	228.67
354.01	228.73
354.39	228.81
354.77	228.89
355.15	229.01
355.54	229.05
355.92	229.06
356.30	229.14
356.68	229.32
357.06	229.40
357.44	229.44
357.82	229.50
358.20	229.71
358.58	229.77
358.97	229.83
359.35	229.92
359.73	230.02
360.11	230.07
360.49	230.13
360.87	230.19
361.25	230.25
361.63	230.36
362.01	230.42
362.39	230.44
362.77	230.50
363.15	230.52
363.53	230.56
363.91	230.60
364.29	230.62
364.67	230.47
365.05	230.49
365.43	230.53
365.81	230.56
366.19	230.51
366.57	230.59
366.95	230.60
367.33	230.56
367.71	230.55
368.09	230.58
368.47	230.57
368.85	230.56
369.23	230.59
369.61	230.51
369.99	230.54
370.37	230.55
370.75	230.66
371.13	230.62
371.51	230.58
371.89	230.57
372.27	230.54
372.65	230.53
373.03	230.50
373.41	230.46
373.78	230.41
374.16	230.28
374.54	230.18
374.92	230.13
375.30	230.08
375.68	230.00
376.06	229.96
376.44	229.90
376.82	229.86
377.19	229.81
377.57	229.76
377.95	229.65
378.33	229.59
378.71	229.38
379.09	229.34
379.47	229.31
379.84	229.24
380.22	229.18
380.60	229.10
380.98	229.05
381.36	229.00
381.73	228.93
382.11	228.93
382.49	228.89
382.87	228.83
383.25	228.78
383.62	228.95
384.00	228.88
384.38	228.85
384.76	228.85
385.13	228.87
385.51	228.84
385.89	228.79
386.27	228.76
386.64	228.77
387.02	228.72
387.40	228.67
387.78	228.66
388.15	228.65
388.53	228.62
388.91	228.60
389.29	228.56
389.66	228.58
390.04	228.53
390.42	228.53
390.79	228.54
391.17	228.52
391.55	228.31
391.92	228.31
392.30	228.32
392.68	228.28
393.05	228.26
393.43	228.27
393.81	228.29
394.18	228.27
394.56	228.28
394.94	228.34
395.31	228.35
395.69	228.42
396.06	228.46
396.44	228.51
396.82	228.53
397.19	228.66
397.57	228.68
397.95	228.75
398.32	228.75
398.70	228.81
399.07	228.91
399.45	228.98
399.82	229.05
400.20	229.10
400.58	229.20
400.95	229.21
401.33	229.33
401.70	229.56
402.08	229.70
402.45	229.83
402.83	229.99
403.20	230.15
403.58	230.28
403.95	230.49
404.33	230.71
404.71	230.92
405.08	231.22
405.46	231.46
405.83	231.73
406.21	232.02
406.58	232.34
406.96	232.66
407.33	233.02
407.70	233.43
408.08	233.99
408.45	234.48
408.83	235.01
409.20	235.51
409.58	235.95
409.95	236.55
410.33	237.21
410.70	237.84
411.08	238.58
411.45	239.37
411.82	240.17
412.20	241.07
412.57	242.15
412.95	243.02
413.32	244.13
413.69	245.29
414.07	246.51
414.44	247.84
414.82	249.20
415.19	250.80
415.56	252.43
415.94	254.13
416.31	256.04
416.68	257.96
417.06	260.17
417.43	262.24
417.81	264.63
418.18	267.07
418.55	269.72
418.93	272.49
419.30	275.39
419.67	278.45
420.04	281.61
420.42	284.90
420.79	288.71
421.16	292.55
421.54	296.45
421.91	300.52
422.28	304.76
422.66	309.33
423.03	313.66
423.40	318.21
423.77	323.09
424.15	328.07
424.52	333.23
424.89	338.82
425.26	344.37
425.64	349.52
426.01	355.30
426.38	361.21
426.75	367.29
427.13	373.51
427.50	380.03
427.87	386.80
428.24	393.62
428.61	400.15
428.99	407.20
429.36	414.93
429.73	422.33
430.10	429.68
430.47	437.21
430.85	445.01
431.22	453.32
431.59	461.84
431.96	470.15
432.33	479.39
432.70	488.20
433.08	498.60
433.45	508.41
433.82	518.10
434.19	528.97
434.56	539.67
434.93	550.06
435.30	560.35
435.68	572.02
436.05	583.43
436.42	594.88
436.79	605.32
437.16	616.67
437.53	628.78
437.90	640.92
438.27	652.84
438.64	665.68
439.01	677.36
439.38	688.07
439.75	698.43
440.13	710.23
440.50	721.42
440.87	730.39
441.24	740.25
441.61	751.05
441.98	759.01
442.35	768.47
442.72	778.10
443.09	787.23
443.46	793.18
443.83	797.70
444.20	801.41
444.57	806.81
444.94	809.99
445.31	813.29
445.68	816.10
446.05	818.19
446.42	817.85
446.79	817.23
447.16	816.73
447.53	816.29
447.90	812.74
448.27	809.37
448.64	804.07
449.01	800.41
449.37	792.85
449.74	786.01
450.11	777.16
450.48	767.43
450.85	757.71
451.22	749.33
451.59	741.07
451.96	733.59
452.33	722.82
452.70	713.22
453.07	701.61
453.43	690.03
453.80	678.73
454.17	667.92
454.54	657.91
454.91	646.65
455.28	636.00
455.65	625.96
456.02	615.35
456.38	606.82
456.75	595.90
457.12	587.07
457.49	578.19
457.86	569.77
458.23	562.36
458.59	554.21
458.96	545.84
459.33	538.50
459.70	531.04
460.07	525.33
460.43	518.60
460.80	512.31
461.17	506.84
461.54	500.93
461.91	495.37
462.27	489.76
462.64	485.15
463.01	479.90
463.38	474.59
463.74	469.81
464.11	465.55
464.48	461.69
464.85	457.56
465.21	454.37
465.58	450.84
465.95	446.85
466.32	443.65
466.68	440.55
467.05	437.39
467.42	434.33
467.78	431.06
468.15	428.05
468.52	425.85
468.88	422.92
469.25	420.26
469.62	418.15
469.98	415.85
470.35	413.80
470.72	411.95
471.08	410.08
471.45	408.50
471.82	406.75
472.18	404.91
472.55	403.72
472.92	402.25
473.28	401.11
473.65	399.88
474.02	398.69
474.38	397.68
474.75	397.10
475.11	396.29
475.48	395.91
475.85	395.49
476.21	395.25
476.58	395.08
476.94	395.25
477.31	395.29
477.67	395.37
478.04	395.68
478.41	396.10
478.77	396.70
479.14	397.08
479.50	397.84
479.87	398.83
480.23	399.78
480.60	400.70
480.96	401.62
481.33	403.02
481.69	404.41
482.06	405.78
482.42	407.03
482.79	408.60
483.15	410.42
483.52	412.48
483.88	414.43
484.25	416.52
484.61	418.71
484.98	421.07
485.34	423.73
485.71	426.51
486.07	429.49
486.44	432.42
486.80	435.72
487.17	439.11
487.53	442.77
487.90	446.61
488.26	450.79
488.62	455.19
488.99	459.58
489.35	464.19
489.72	469.15
490.08	474.39
490.44	479.72
490.81	485.30
491.17	491.04
491.54	497.17
491.90	503.44
492.26	510.14
492.63	517.17
492.99	524.52
493.36	532.00
493.72	539.85
494.08	547.93
494.45	556.39
494.81	565.23
495.17	574.32
495.54	583.91
495.90	593.92
496.26	604.12
496.63	614.62
496.99	625.50
497.35	636.87
497.72	648.50
498.08	660.50
498.44	672.77
498.80	685.73
499.17	699.00
499.53	712.72
499.89	726.86
500.26	741.17
500.62	755.83
500.98	771.31
501.34	786.83
501.71	803.16
502.07	819.76
502.43	836.81
502.79	854.11
503.16	871.86
503.52	889.81
503.88	908.19
504.24	926.99
504.60	946.06
504.97	965.75
505.33	985.90
505.69	1007.04
506.05	1028.43
506.41	1049.71
506.78	1071.14
507.14	1093.15
507.50	1115.60
507.86	1138.44
508.22	1161.52
508.59	1184.49
508.95	1208.50
509.31	1232.94
509.67	1257.99
510.03	1282.98
510.39	1307.89
510.75	1332.89
511.12	1358.26
511.48	1383.74
511.84	1409.28
512.20	1435.15
512.56	1462.01
512.92	1488.68
513.28	1514.77
513.64	1541.22
514.00	1568.03
514.37	1595.13
514.73	1622.22
515.09	1648.67
515.45	1675.47
515.81	1702.37
516.17	1729.00
516.53	1755.01
516.89	1780.89
517.25	1807.08
517.61	1833.02
517.97	1859.62
518.33	1885.63
518.69	1911.47
519.05	1937.81
519.41	1964.23
519.77	1990.62
520.13	2015.56
520.49	2040.59
520.85	2065.94
521.21	2090.74
521.57	2115.81
521.93	2139.94
522.29	2164.63
522.65	2189.17
523.01	2213.39
523.37	2236.87
523.73	2261.11
524.09	2285.11
524.45	2308.67
524.81	2331.58
525.17	2354.33
525.53	2376.36
525.89	2398.72
526.25	2420.77
526.61	2441.19
526.97	2461.67
527.33	2481.94
527.68	2501.96
528.04	2521.64
528.40	2540.02
528.76	2558.57
529.12	2576.77
529.48	2595.44
529.84	2611.33
530.20	2627.70
530.56	2643.19
530.91	2658.96
531.27	2674.18
531.63	2688.34
531.99	2702.38
532.35	2716.00
532.71	2729.23
533.07	2742.71
533.42	2754.35
533.78	2766.29
534.14	2779.14
534.50	2790.82
534.86	2802.98
535.21	2813.19
535.57	2823.18
535.93	2833.01
536.29	2841.02
536.65	2848.86
537.00	2855.20
537.36	2863.05
537.72	2869.85
538.08	2876.16
538.44	2881.41
538.79	2886.28
539.15	2889.80
539.51	2892.57
539.87	2894.21
540.22	2894.42
540.58	2894.85
540.94	2896.23
541.29	2896.20
541.65	2894.93
542.01	2893.24
542.37	2890.05
542.72	2888.18
543.08	2884.72
543.44	2881.58
543.79	2878.02
544.15	2873.74
544.51	2869.69
544.87	2864.55
545.22	2858.46
545.58	2852.29
545.94	2846.22
546.29	2838.59
546.65	2831.34
547.01	2824.16
547.36	2817.42
547.72	2810.83
548.07	2802.48
548.43	2793.08
548.79	2783.50
549.14	2774.17
549.50	2764.94
549.86	2754.81
550.21	2743.21
550.57	2732.67
550.92	2720.26
551.28	2708.48
551.64	2696.84
551.99	2684.87
552.35	2672.49
552.70	2660.01
553.06	2647.92
553.41	2635.38
553.77	2622.70
554.13	2610.03
554.48	2596.31
554.84	2581.88
555.19	2567.78
555.55	2553.59
555.90	2539.80
556.26	2526.37
556.61	2511.77
556.97	2496.27
557.32	2481.24
557.68	2466.52
558.03	2451.45
558.39	2437.40
558.74	2423.89
559.10	2408.46
559.45	2393.39
559.81	2379.05
560.16	2364.29
560.52	2349.37
560.87	2334.58
561.23	2319.47
561.58	2304.87
561.94	2289.73
562.29	2274.10
562.64	2258.67
563.00	2243.43
563.35	2228.21
563.71	2212.66
564.06	2197.27
564.42	2182.45
564.77	2167.63
565.12	2152.49
565.48	2137.19
565.83	2122.14
566.19	2106.97
566.54	2092.21
566.89	2076.82
567.25	2061.27
567.60	2046.63
567.96	2031.15
568.31	2014.58
568.66	1998.99
569.02	1983.88
569.37	1969.37
569.72	1955.44
570.08	1941.07
570.43	1926.06
570.78	1910.95
571.14	1895.57
571.49	1880.35
571.84	1865.34
572.20	1849.19
572.55	1833.85
572.90	1818.63
573.26	1803.35
573.61	1787.48
573.96	1772.14
574.31	1756.59
574.67	1740.92
575.02	1724.91
575.37	1708.99
575.72	1693.78
576.08	1678.29
576.43	1662.20
576.78	1646.23
577.13	1630.49
577.49	1614.96
577.84	1599.92
578.19	1584.40
578.54	1569.05
578.90	1553.55
579.25	1537.91
579.60	1523.44
579.95	1508.69
580.30	1493.82
580.66	1478.69
581.01	1463.62
581.36	1448.70
581.71	1434.64
582.06	1420.49
582.42	1406.22
582.77	1392.46
583.12	1378.90
583.47	1365.22
583.82	1351.75
584.17	1337.85
584.53	1324.03
584.88	1310.46
585.23	1296.78
585.58	1283.48
585.93	1270.09
586.28	1257.68
586.63	1245.11
586.98	1232.15
587.34	1219.54
587.69	1206.77
588.04	1194.40
588.39	1182.35
588.74	1169.81
589.09	1157.41
589.44	1144.77
589.79	1132.70
590.14	1120.68
590.49	1108.74
590.84	1097.04
591.19	1085.62
591.54	1074.32
591.89	1062.57
592.25	1051.24
592.60	1039.75
592.95	1028.43
593.30	1017.45
593.65	1006.22
594.00	995.24
594.35	985.18
594.70	974.42
595.05	964.30
595.40	953.94
595.75	943.42
596.10	933.57
596.45	923.72
596.80	914.20
597.15	904.69
597.50	895.18
597.85	885.83
598.19	876.52
598.54	867.25
598.89	858.49
599.24	850.15
599.59	841.62
599.94	833.73
600.29	825.83
600.64	817.75
600.99	809.55
601.34	801.61
601.69	793.17
602.04	785.63
602.39	777.96
602.74	770.48
603.08	763.18
603.43	755.83
603.78	748.43
604.13	741.12
604.48	733.90
604.83	726.85
605.18	719.92
605.53	713.13
605.87	706.29
606.22	699.58
606.57	692.79
606.92	685.90
607.27	679.03
607.62	672.40
607.96	666.04
608.31	660.09
608.66	654.12
609.01	648.41
609.36	642.66
609.70	636.84
610.05	631.06
610.40	625.45
610.75	619.81
611.10	614.39
611.44	609.00
611.79	603.68
612.14	598.31
612.49	593.04
612.83	588.01
613.18	583.01
613.53	578.02
613.88	573.20
614.22	568.73
614.57	564.17
614.92	559.69
615.27	555.34
615.61	550.89
615.96	546.44
616.31	542.02
616.65	537.76
617.00	533.62
617.35	529.52
617.70	525.44
618.04	521.48
618.39	517.63
618.74	514.00
619.08	510.37
619.43	506.85
619.78	503.25
620.12	499.66
620.47	496.31
620.82	493.02
621.16	489.74
621.51	486.49
621.85	483.26
622.20	480.11
622.55	476.91
622.89	473.76
623.24	470.80
623.59	467.87
623.93	465.04
624.28	462.35
624.62	459.85
624.97	457.35
625.32	454.76
625.66	452.12
626.01	449.49
626.35	446.98
626.70	444.42
627.04	442.08
627.39	439.68
627.73	437.36
628.08	435.09
628.43	432.83
628.77	430.50
629.12	428.31
629.46	426.21
629.81	424.24
630.15	422.22
630.50	420.21
630.84	418.24
631.19	416.30
631.53	414.43
631.88	412.40
632.22	410.48
632.57	408.83
632.91	407.16
633.26	405.54
633.60	403.95
633.95	402.43
634.29	400.77
634.64	399.20
634.98	397.49
635.32	395.98
635.67	394.60
636.01	393.22
636.36	391.88
636.70	390.62
637.05	389.20
637.39	387.92
637.73	386.64
638.08	385.43
638.42	384.27
638.77	382.97
639.11	381.64
639.45	380.36
639.80	379.01
640.14	377.76
640.49	376.51
640.83	375.25
641.17	374.03
641.52	372.85
641.86	371.70
642.20	370.70
642.55	369.51
642.89	368.33
643.23	367.24
643.58	366.26
643.92	365.12
644.26	364.09
644.61	363.09
644.95	362.04
645.29	360.92
645.64	359.80
645.98	358.79
646.32	357.88
646.66	356.92
647.01	356.00
647.35	355.16
647.69	354.28
648.04	353.47
648.38	352.60
648.72	351.78
649.06	350.95
649.41	350.06
649.75	349.24
650.09	348.47
650.43	347.64
650.78	346.80
651.12	346.00
651.46	345.20
651.80	344.43
652.14	343.72
652.49	343.06
652.83	342.32
653.17	341.56
653.51	340.85
653.85	340.22
654.20	339.55
654.54	338.78
654.88	338.05
655.22	337.37
655.56	336.66
655.90	335.97
656.25	335.31
656.59	334.67
656.93	334.07
657.27	333.51
657.61	332.88
657.95	332.29
658.29	331.69
658.64	331.12
658.98	330.48
659.32	329.85
659.66	329.26
660.00	328.71
660.34	328.17
660.68	327.56
661.02	326.90
661.36	326.29
661.70	325.72
662.05	325.17
662.39	324.61
662.73	324.15
663.07	323.72
663.41	323.25
663.75	322.71
664.09	322.19
664.43	321.55
664.77	321.03
665.11	320.43
665.45	319.90
665.79	319.40
666.13	318.88
666.47	318.34
666.81	317.77
667.15	317.18
667.49	316.72
667.83	316.30
668.17	315.85
668.51	315.42
668.85	315.01
669.19	314.64
669.53	314.10
669.87	313.55
670.21	313.01
670.55	312.49
670.89	312.10
671.23	311.66
671.57	311.29
671.91	310.93
672.25	310.59
672.58	310.26
672.92	309.82
673.26	309.47
673.60	309.11
673.94	308.73
674.28	308.39
674.62	308.02
674.96	307.58
675.30	307.19
675.64	306.75
675.97	306.29
676.31	305.81
676.65	305.40
676.99	305.08
677.33	304.64
677.67	304.26
678.01	303.78
678.34	303.36
678.68	302.96
679.02	302.52
679.36	302.09
679.70	301.64
680.04	301.25
680.37	300.85
680.71	300.47
681.05	300.12
681.39	299.70
681.73	299.24
682.06	298.82
682.40	298.43
682.74	298.08
683.08	297.79
683.42	297.41
683.75	297.07
684.09	296.60
684.43	296.23
684.77	295.81
685.10	295.43
685.44	295.04
685.78	294.63
686.12	294.24
686.45	293.83
686.79	293.39
687.13	292.98
687.46	292.54
687.80	292.13
688.14	291.65
688.48	291.24
688.81	290.83
689.15	290.49
689.49	290.06
689.82	289.63
690.16	289.10
690.50	288.66
690.83	288.22
691.17	287.77
691.51	287.35
691.84	286.98
692.18	286.55
692.52	286.09
692.85	285.64
693.19	285.27
693.52	284.84
693.86	284.41
694.20	283.99
694.53	283.58
694.87	283.12
695.21	282.68
695.54	282.26
695.88	281.82
696.21	281.34
696.55	280.90
696.88	280.46
697.22	280.05
697.56	279.65
697.89	279.19
698.23	278.80
698.56	278.37
698.90	277.95
699.23	277.52
699.57	277.13
699.90	276.73
700.24	276.28
700.58	275.89
700.91	275.55
701.25	275.31
701.58	275.00
701.92	274.67
702.25	274.32
702.59	273.92
702.92	273.54
703.26	273.14
703.59	272.74
703.93	272.50
704.26	272.14
704.60	271.75
704.93	271.39
705.26	270.98
705.60	270.64
705.93	270.22
706.27	269.92
706.60	269.59
706.94	269.29
707.27	268.89
707.61	268.52
707.94	268.11
708.27	267.58
708.61	267.14
708.94	266.73
709.28	266.35
709.61	265.99
709.94	265.66
710.28	265.34
710.61	265.02
710.95	264.52
711.28	264.29
711.61	263.94
711.95	263.64
712.28	263.30
712.61	262.94
712.95	262.69
713.28	262.42
713.61	262.05
713.95	261.67
714.28	261.35
714.61	261.01
714.95	260.71
715.28	260.38
715.61	260.08
715.95	259.80
716.28	259.49
716.61	259.22
716.95	258.91
717.28	258.61
717.61	258.31
717.94	258.03
718.28	257.62
718.61	257.33
718.94	257.01
719.27	256.74
719.61	256.49
719.94	256.18
720.27	255.82
720.60	255.56
720.94	255.29
721.27	255.04
721.60	254.81
721.93	254.54
722.27	254.34
722.60	254.08
722.93	253.80
723.26	253.57
723.59	253.29
723.93	253.06
724.26	252.83
724.59	252.58
724.92	252.36
725.25	252.17
725.59	251.95
725.92	251.75
726.25	251.51
726.58	251.28
726.91	251.04
727.24	250.83
727.57	250.60
727.91	250.34
728.24	250.15
728.57	249.91
728.90	249.72
729.23	249.44
729.56	249.32
729.89	249.11
730.22	248.90
730.55	248.70
730.89	248.49
731.22	248.28
731.55	248.08
731.88	247.88
732.21	247.65
732.54	247.44
732.87	247.26
733.20	247.08
733.53	246.91
733.86	246.74
734.19	246.54
734.52	246.39
734.85	246.35
735.18	246.15
735.51	246.03
735.84	245.86
736.17	245.75
736.50	245.47
736.83	245.51
737.16	245.34
737.49	245.17
737.82	244.99
738.15	244.84
738.48	244.68
738.81	244.51
739.14	244.32
739.47	244.15
739.80	243.98
740.13	243.83
740.46	243.64
740.79	243.45
741.12	243.29
741.45	243.10
741.78	242.84
742.11	242.72
742.44	242.51
742.77	242.37
743.10	242.19
743.43	242.04
743.75	241.69
744.08	241.81
744.41	241.65
744.74	241.50
745.07	241.32
745.40	241.21
745.73	241.14
746.06	241.02
746.39	240.91
746.71	240.77
747.04	240.60
747.37	240.47
747.70	240.36
748.03	240.23
748.36	240.13
748.68	240.00
749.01	239.83
749.34	239.71
749.67	239.59
750.00	239.50
750.33	239.51
750.65	239.41
750.98	239.03
751.31	238.93
751.64	238.83
751.97	238.81
752.29	238.67
752.62	238.48
752.95	238.35
753.28	238.21
753.60	238.09
753.93	238.02
754.26	237.93
754.59	237.76
754.91	237.64
755.24	237.50
755.57	237.40
755.90	237.29
756.22	237.16
756.55	237.02
756.88	236.87
757.20	236.65
757.53	236.50
757.86	236.39
758.19	236.30
758.51	236.20
758.84	236.01
759.17	235.91
759.49	235.82
759.82	235.81
760.15	235.73
760.47	235.63
760.80	235.49
761.13	235.43
761.45	235.34
761.78	235.25
762.11	235.18
762.43	235.08
762.76	235.00
763.08	234.93
763.41	234.87
763.74	234.80
764.06	234.72
764.39	234.65
764.71	234.57
765.04	234.48
765.37	234.38
765.69	234.31
766.02	234.22
766.34	234.14
766.67	234.00
767.00	233.96
767.32	233.99
767.65	234.03
767.97	233.93
768.30	233.88
768.62	233.81
768.95	233.72
769.27	233.65
769.60	233.61
769.92	233.51
770.25	233.42
770.57	233.33
770.90	233.26
771.22	233.17
771.55	233.12
771.87	233.07
772.20	233.01
772.52	233.10
772.85	233.26
773.17	233.21
773.50	233.14
773.82	233.06
774.15	232.92
774.47	232.76
774.80	232.69
775.12	232.63
775.45	232.58
775.77	232.54
776.09	232.51
776.42	232.46
776.74	232.47
777.07	232.42
777.39	232.39
777.72	232.33
778.04	232.32
778.36	232.26
778.69	232.22
779.01	232.20
779.33	232.00
779.66	231.75
779.98	231.70
780.31	231.67
780.63	231.70
780.95	231.69
781.28	231.65
781.60	231.61
781.92	231.57
782.25	231.53
782.57	231.49
782.89	231.45
783.22	231.40
783.54	231.32
783.86	231.30
784.19	231.25
784.51	231.27
784.83	231.21
785.16	231.17
785.48	231.14
785.80	231.10
786.12	231.08
786.45	231.06
786.77	231.04
787.09	231.01
787.42	230.91
787.74	230.88
788.06	230.86
788.38	230.83
788.71	230.79
789.03	230.76
789.35	230.76
789.67	230.71
789.99	230.69
790.32	230.65
790.64	230.64
790.96	230.78
791.28	230.69
791.61	230.65
791.93	230.64
792.25	230.60
792.57	230.69
792.89	230.64
793.21	230.63
793.54	230.58
793.86	230.53
794.18	230.52
794.50	230.47
794.82	230.45
795.14	230.44
795.47	230.45
795.79	230.43
796.11	230.36
796.43	230.34
796.75	230.30
797.07	230.29
797.39	230.26
797.71	230.09
798.04	230.09
798.36	230.08
798.68	230.06
799.00	230.05
799.32	229.94
799.64	229.95
799.96	229.92
800.28	229.94
800.60	229.91
800.92	229.90
801.24	229.88
801.56	229.87
801.89	229.83
802.21	229.81
802.53	229.76
802.85	229.79
803.17	229.85
803.49	229.80
803.81	229.76
804.13	229.73
804.45	229.69
804.77	229.68
805.09	229.67
805.41	229.63
805.73	229.58
806.05	229.51
806.37	229.48
806.69	229.45
807.01	229.41
807.33	229.40
807.65	229.31
807.97	229.37
808.28	229.33
808.60	229.32
808.92	229.28
809.24	229.38
809.56	229.33
809.88	229.25
810.20	229.26
810.52	229.28
810.84	229.25
811.16	229.21
811.48	229.19
811.80	229.23
812.12	229.21
812.43	229.24
812.75	229.24
813.07	229.22
813.39	229.21
813.71	229.18
814.03	229.15
814.35	229.15
814.67	229.07
814.98	229.04
815.30	229.02
815.62	228.99
815.94	228.85
816.26	228.86
816.58	228.81
816.89	228.82
817.21	228.76
817.53	228.76
817.85	228.76
818.17	228.75
818.48	228.66
818.80	228.69
819.12	228.64
819.44	228.60
819.76	228.57
820.07	228.56
820.39	228.55
820.71	228.55
821.03	228.55
821.34	228.53
821.66	228.56
821.98	228.56
822.30	228.54
822.61	228.65
822.93	228.62
823.25	228.61
823.57	228.57
823.88	228.59
824.20	228.57
824.52	228.59
824.83	228.57
825.15	228.55
825.47	228.52
825.79	228.54
826.10	228.53
826.42	228.52
826.74	228.52
827.05	228.51
827.37	228.50
827.69	228.48
828.00	228.48
828.32	228.45
828.64	228.42
828.95	228.51
829.27	228.45
829.58	228.44
829.90	228.46
830.22	228.47
830.53	228.43
830.85	228.41
831.17	228.36
831.48	228.35
831.80	228.36
832.11	228.34
832.43	228.30
832.75	228.30
833.06	228.39
833.38	228.34
833.69	228.33
834.01	228.33
834.32	228.32
834.64	228.29
834.96	228.30
835.27	228.29
835.59	228.23
835.90	228.20
836.22	228.19
836.53	228.15
836.85	228.12
837.16	228.30
837.48	228.30
837.79	228.36
838.11	228.35
838.42	228.34
838.74	228.36
839.05	228.35
839.37	228.34
839.68	228.22
840.00	228.21
840.31	228.23
840.63	228.21
840.94	228.18
841.26	228.16
841.57	228.15
841.88	228.16
842.20	228.13
842.51	228.10
842.83	228.10
843.14	228.25
843.46	228.24
843.77	228.13
844.08	228.11
844.40	228.05
844.71	228.03
845.03	228.01
845.34	227.99
845.65	227.98
845.97	227.98
846.28	227.99
846.60	228.01
846.91	227.97
847.22	227.96
847.54	228.00
847.85	228.01
848.16	227.99
848.48	227.95
848.79	228.01
849.10	228.03
849.42	228.04
849.73	227.87
850.04	227.87
850.36	227.80
850.67	227.83
850.98	227.84
851.30	227.86
851.61	227.85
851.92	227.84
852.23	227.89
852.55	227.89
852.86	227.89
853.17	227.90
853.49	227.95
853.80	227.98
854.11	227.99
854.42	228.01
854.74	227.99
855.05	228.00
855.36	227.91
855.67	227.90
855.99	227.90
856.30	228.11
856.61	228.10
856.92	228.11
857.23	228.11
857.55	228.09
857.86	228.07
858.17	228.10
858.48	228.07
858.79	228.03
859.11	228.04
859.42	228.02
859.73	227.99
860.04	227.97
860.35	227.91
860.66	227.85
860.98	227.84
861.29	227.86
861.60	227.84
861.91	227.88
862.22	227.85
862.53	227.82
862.84	227.61
863.16	227.65
863.47	227.61
863.78	227.58
864.09	227.59
864.40	227.60
864.71	227.59
865.02	227.61
865.33	227.59
865.64	227.55
865.95	227.55
866.27	227.67
866.58	227.65
866.89	227.67
867.20	227.67
867.51	227.64
867.82	227.63
868.13	227.68
868.44	227.64
868.75	227.67
869.06	227.68
869.37	227.70
869.68	227.64
869.99	227.68
870.30	227.69
870.61	227.70
870.92	227.67
871.23	227.65
871.54	227.67
871.85	227.71
872.16	227.73
872.47	227.72
872.78	227.62
873.09	227.63
873.40	227.61
873.71	227.63
874.02	227.64
874.33	227.63
874.64	227.58
874.95	227.62
875.26	227.58
875.56	227.58
875.87	227.57
876.18	227.57
876.49	227.74
876.80	227.73
877.11	227.69
877.42	227.71
877.73	227.71
878.04	227.69
878.35	227.68
878.66	227.68
878.96	227.68
879.27	227.67
879.58	227.66
879.89	227.65
880.20	227.69
880.51	227.68
880.82	227.68
881.12	227.69
881.43	227.65
881.74	227.63
882.05	227.62
882.36	227.62
882.67	227.64
882.97	227.44
883.28	227.42
883.59	227.43
883.90	227.44
884.21	227.46
884.51	227.45
884.82	227.42
885.13	227.42
885.44	227.41
885.74	227.42
886.05	227.42
886.36	227.42
886.67	227.35
886.98	227.45
887.28	227.46
887.59	227.45
887.90	227.46
888.20	227.46
888.51	227.49
888.82	227.46
889.13	227.47
889.43	227.63
889.74	227.63
890.05	227.62
890.35	227.60
890.66	227.57
890.97	227.56
891.28	227.54
891.58	227.54
891.89	227.54
892.20	227.52
892.50	227.51
892.81	227.50
893.12	227.50
893.42	227.40
893.73	227.41
894.04	227.41
894.34	227.42
894.65	227.42
894.95	227.40
895.26	227.41
895.57	227.49
895.87	227.30
896.18	227.33
896.48	227.34
896.79	227.34
897.10	227.37
897.40	227.37
897.71	227.40
898.01	227.38
898.32	227.40
898.63	227.40
898.93	227.41
899.24	227.42
899.54	227.41
899.85	227.41
900.15	227.40
900.46	227.40
900.76	227.42
901.07	227.42
901.38	227.41
901.68	227.42
901.99	227.33
902.29	227.35
902.60	227.33
902.90	227.31
903.21	227.30
903.51	227.29
903.82	227.33
904.12	227.33
904.43	227.34
904.73	227.32
905.03	227.33
905.34	227.50
905.64	227.48
905.95	227.48
906.25	227.48
906.56	227.48
906.86	227.48
907.17	227.46
907.47	227.47
907.77	227.45
908.08	227.42
908.38	227.44
908.69	227.45
908.99	227.48
909.30	227.50
909.60	227.50
909.90	227.49
910.21	227.43
910.51	227.41
910.81	227.41
911.12	227.42
911.42	227.42
911.73	227.23
912.03	227.25
912.33	227.28
912.64	227.26
912.94	227.25
913.24	227.21
913.55	227.20
913.85	227.19
914.15	227.23
914.46	227.24
914.76	227.22
915.06	227.20
915.37	227.18
915.67	227.16
915.97	227.16
916.27	227.14
916.58	227.15
916.88	227.14
917.18	227.13
917.49	227.25
917.79	227.23
918.09	227.26
918.39	227.30
918.70	227.28
919.00	227.30
919.30	227.38
919.60	227.38
919.91	227.36
920.21	227.37
920.51	227.33
920.81	227.32
921.12	227.35
921.42	227.34
921.72	227.35
922.02	227.36
922.32	227.38
922.63	227.39
922.93	227.49
923.23	227.50
923.53	227.48
923.83	227.36
924.13	227.37
924.44	227.37
924.74	227.39
925.04	227.43
925.34	227.42
925.64	227.35
925.94	227.34
926.24	227.45
926.55	227.43
926.85	227.45
927.15	227.45
927.45	227.45
927.75	227.46
928.05	227.46
928.35	227.44
928.65	227.47
928.95	227.49
929.26	227.41
929.56	227.44
929.86	227.46
930.16	227.45
930.46	227.44
930.76	227.44
931.06	227.36
931.36	227.31
931.66	227.34
931.96	227.36
932.26	227.38
932.56	227.30
932.86	227.32
933.16	227.32
933.46	227.31
933.76	227.28
934.06	227.31
934.36	227.37
934.66	227.36
934.96	227.34
935.26	227.34
935.56	227.36
935.86	227.32
936.16	227.29
936.46	227.28
936.76	227.28
937.06	227.26
937.36	227.28
937.66	227.28
937.96	227.27
938.26	227.23
938.56	227.21
938.86	227.22
939.16	227.25
939.46	227.27
939.76	227.28
940.06	227.27
940.35	227.24
940.65	227.15
940.95	227.17
941.25	227.13
941.55	227.11
941.85	227.09
942.15	227.13
942.45	227.17
942.75	227.17
943.04	227.18
943.34	227.21
943.64	227.19
943.94	227.17
944.24	227.17
944.54	227.19
944.84	227.19
945.13	227.16
945.43	227.14
945.73	227.12
946.03	227.10
946.33	227.09
946.62	227.07
946.92	227.07
947.22	227.08
947.52	227.10
947.82	227.12
948.11	227.10
948.41	227.07
948.71	227.02
949.01	227.03
949.31	227.01
949.60	226.99
949.90	227.02
950.20	227.03
950.50	227.03
950.79	227.01
951.09	227.04
951.39	227.04
951.69	227.02
951.98	227.05
952.28	227.06
952.58	227.07
952.87	227.07
953.17	227.09
953.47	227.07
953.76	227.07
954.06	227.03
954.36	227.01
954.66	227.01
954.95	227.06
955.25	227.07
955.55	227.09
955.84	227.06
956.14	227.07
956.44	227.08
956.73	227.04
957.03	227.05
957.32	227.06
957.62	227.06
957.92	227.10
958.21	227.08
958.51	227.28
958.81	227.30
959.10	227.33
959.40	227.37
959.69	227.38
959.99	227.41
960.29	227.42
960.58	227.42
960.88	227.48
961.17	227.46
961.47	227.48
961.76	227.46
962.06	227.49
962.36	227.47
962.65	227.48
962.95	227.50
963.24	227.48
963.54	227.47
963.83	227.48
964.13	227.47
964.42	227.45
964.72	227.30
965.01	227.30
965.31	227.28
965.60	227.24
965.90	227.35
966.19	227.30
966.49	227.32
966.78	227.31
967.08	227.29
967.37	227.29
967.67	227.25
967.96	227.29
968.26	227.27
968.55	227.30
968.85	227.29
969.14	227.28
969.43	227.29
969.73	227.27
970.02	227.26
970.32	227.25
970.61	227.22
970.91	227.17
971.20	227.14
971.49	227.13
971.79	227.15
972.08	227.01
972.38	227.03
972.67	227.01
972.96	227.04
973.26	227.00
973.55	227.06
973.85	227.06
974.14	227.04
974.43	227.05
974.73	227.02
975.02	227.01
975.31	227.01
975.61	227.01
975.90	227.00
976.19	226.98
976.49	226.99
976.78	227.01
977.07	227.02
977.37	227.03
977.66	227.05
977.95	227.02
978.24	227.04
978.54	227.08
978.83	227.07
979.12	227.05
979.42	227.06
979.71	227.01
980.00	227.01
980.29	227.02
980.59	226.99
980.88	227.03
981.17	227.03
981.46	227.03
981.76	227.03
982.05	227.08
982.34	227.10
982.63	227.10
982.93	227.10
983.22	227.14
983.51	227.14
983.80	227.17
984.09	227.20
984.39	227.18
984.68	227.15
984.97	227.16
985.26	227.15
985.55	227.17
985.85	227.14
986.14	227.16
986.43	227.18
986.72	227.17
987.01	227.12
987.30	227.12
987.59	227.12
987.89	227.12
988.18	227.07
988.47	227.05
988.76	227.03
989.05	227.02
989.34	226.99
989.63	227.04
989.92	227.00
990.22	226.98
990.51	226.97
990.80	226.96
991.09	226.98
991.38	227.00
991.67	226.98
991.96	226.97
992.25	226.97
992.54	226.94
992.83	226.94
993.12	226.94
993.41	226.97
993.70	227.04
993.99	227.07
994.28	227.10
994.58	227.13
994.87	227.12
995.16	227.11
995.45	227.10
995.74	227.03
996.03	227.06
996.32	227.09
996.61	227.13
996.90	227.12
997.19	227.11
997.48	227.11
997.77	227.09
998.06	227.10
998.34	227.09
998.63	227.09
998.92	227.10
999.21	227.13
999.50	227.12
999.79	227.05
1000.08	227.04
1000.37	227.04
1000.66	227.01
1000.95	227.06
1001.24	227.08
1001.53	227.10
1001.82	227.10
1002.11	227.07
1002.40	227.08
1002.68	227.12
1002.97	227.24
1003.26	227.22
1003.55	227.19
1003.84	227.21
1004.13	227.27
1004.42	227.26
1004.71	227.27
1004.99	227.25
1005.28	227.28
1005.57	227.27
1005.86	227.26
1006.15	227.25
1006.44	227.22
1006.72	227.24
1007.01	227.20
1007.30	227.20
1007.59	227.18
1007.88	227.18
1008.17	227.19
1008.45	227.15
1008.74	227.07
1009.03	226.98
1009.32	226.99
1009.60	226.99
1009.89	226.98
1010.18	226.91
1010.47	226.89
1010.76	226.89
1011.04	226.89
1011.33	226.88
1011.62	226.89
1011.91	226.91
1012.19	226.91
1012.48	226.92
1012.77	226.92
1013.05	226.99
1013.34	226.99
1013.63	226.98
1013.92	226.99
1014.20	226.98
1014.49	226.99
1014.78	227.01
1015.06	226.96
1015.35	226.96
1015.64	226.98
1015.92	227.00
1016.21	227.01
1016.50	227.02
1016.78	227.04
1017.07	227.06
1017.36	227.02
1017.64	226.99
1017.93	227.01
1018.22	226.99
1018.50	226.98
1018.79	226.98
1019.08	226.91
1019.36	226.92
1019.65	226.90
1019.93	226.95
1020.22	226.98
1020.51	227.07
1020.79	227.05
1021.08	226.72
1021.36	226.59
1021.65	227.03
1021.94	226.90
1022.22	227.15
1022.51	226.62
1022.79	227.98
1023.08	227.23
1023.36	229.14
1023.65	226.57
>>>>>End Processed Spectral Data<<<<<
