SpectraSuite Data File
++++++++++++++++++++++++++++++++++++
Date: Tue Oct 06 20:35:17 EDT 2015
User: lab3
Dark Spectrum Present: No
Reference Spectrum Present: No
Number of Sampled Component Spectra: 1
Spectrometers: USB2E7196
Integration Time (usec): 66000 (USB2E7196)
Spectra Averaged: 5000 (USB2E7196)
Boxcar Smoothing: 10 (USB2E7196)
Correct for Electrical Dark: No (USB2E7196)
Strobe/Lamp Enabled: No (USB2E7196)
Correct for Detector Non-linearity: No (USB2E7196)
Correct for Stray Light: No (USB2E7196)
Number of Pixels in Processed Spectrum: 2048
>>>>>Begin Processed Spectral Data<<<<<
339.09	0.00
339.48	214.31
339.86	215.80
340.24	217.17
340.63	218.64
341.01	222.75
341.39	221.24
341.78	222.71
342.16	224.15
342.54	224.27
342.93	212.87
343.31	223.62
343.69	224.17
344.07	224.62
344.46	225.07
344.84	225.48
345.22	225.67
345.60	225.95
345.99	226.17
346.37	226.31
346.75	226.43
347.13	226.52
347.52	226.61
347.90	226.74
348.28	226.78
348.66	226.86
349.05	226.85
349.43	226.92
349.81	226.99
350.19	227.06
350.57	227.14
350.96	227.23
351.34	227.34
351.72	227.45
352.10	227.57
352.48	227.64
352.87	227.68
353.25	227.75
353.63	227.80
354.01	227.86
354.39	227.93
354.77	228.01
355.15	228.12
355.54	228.16
355.92	228.16
356.30	228.24
356.68	228.42
357.06	228.50
357.44	228.53
357.82	228.59
358.20	228.80
358.58	228.86
358.97	228.92
359.35	229.01
359.73	229.10
360.11	229.15
360.49	229.21
360.87	229.26
361.25	229.32
361.63	229.43
362.01	229.48
362.39	229.50
362.77	229.56
363.15	229.58
363.53	229.61
363.91	229.65
364.29	229.67
364.67	229.52
365.05	229.54
365.43	229.59
365.81	229.62
366.19	229.57
366.57	229.65
366.95	229.65
367.33	229.61
367.71	229.60
368.09	229.63
368.47	229.63
368.85	229.63
369.23	229.64
369.61	229.57
369.99	229.60
370.37	229.61
370.75	229.72
371.13	229.69
371.51	229.65
371.89	229.64
372.27	229.62
372.65	229.61
373.03	229.57
373.41	229.53
373.78	229.47
374.16	229.35
374.54	229.25
374.92	229.20
375.30	229.16
375.68	229.08
376.06	229.04
376.44	228.98
376.82	228.95
377.19	228.90
377.57	228.85
377.95	228.75
378.33	228.69
378.71	228.49
379.09	228.44
379.47	228.42
379.84	228.36
380.22	228.29
380.60	228.22
380.98	228.17
381.36	228.12
381.73	228.06
382.11	228.06
382.49	228.03
382.87	227.97
383.25	227.93
383.62	228.10
384.00	228.03
384.38	228.00
384.76	228.00
385.13	228.03
385.51	227.99
385.89	227.94
386.27	227.92
386.64	227.91
387.02	227.87
387.40	227.83
387.78	227.81
388.15	227.80
388.53	227.77
388.91	227.75
389.29	227.73
389.66	227.74
390.04	227.69
390.42	227.70
390.79	227.71
391.17	227.69
391.55	227.48
391.92	227.48
392.30	227.50
392.68	227.45
393.05	227.43
393.43	227.44
393.81	227.46
394.18	227.44
394.56	227.45
394.94	227.51
395.31	227.51
395.69	227.59
396.06	227.64
396.44	227.68
396.82	227.71
397.19	227.84
397.57	227.86
397.95	227.93
398.32	227.92
398.70	227.99
399.07	228.09
399.45	228.15
399.82	228.22
400.20	228.27
400.58	228.36
400.95	228.38
401.33	228.51
401.70	228.74
402.08	228.89
402.45	229.02
402.83	229.19
403.20	229.36
403.58	229.49
403.95	229.70
404.33	229.92
404.71	230.13
405.08	230.43
405.46	230.68
405.83	230.95
406.21	231.25
406.58	231.57
406.96	231.89
407.33	232.27
407.70	232.69
408.08	233.26
408.45	233.76
408.83	234.30
409.20	234.79
409.58	235.24
409.95	235.86
410.33	236.53
410.70	237.16
411.08	237.91
411.45	238.71
411.82	239.51
412.20	240.43
412.57	241.53
412.95	242.40
413.32	243.53
413.69	244.70
414.07	245.95
414.44	247.29
414.82	248.67
415.19	250.28
415.56	251.92
415.94	253.63
416.31	255.55
416.68	257.48
417.06	259.71
417.43	261.80
417.81	264.20
418.18	266.65
418.55	269.32
418.93	272.10
419.30	275.01
419.67	278.09
420.04	281.26
420.42	284.57
420.79	288.39
421.16	292.25
421.54	296.14
421.91	300.23
422.28	304.47
422.66	309.04
423.03	313.39
423.40	317.94
423.77	322.81
424.15	327.80
424.52	332.97
424.89	338.57
425.26	344.12
425.64	349.26
426.01	355.03
426.38	360.94
426.75	367.02
427.13	373.23
427.50	379.74
427.87	386.49
428.24	393.29
428.61	399.79
428.99	406.80
429.36	414.51
429.73	421.86
430.10	429.18
430.47	436.68
430.85	444.43
431.22	452.69
431.59	461.16
431.96	469.42
432.33	478.60
432.70	487.33
433.08	497.67
433.45	507.41
433.82	517.05
434.19	527.84
434.56	538.48
434.93	548.79
435.30	559.00
435.68	570.58
436.05	581.90
436.42	593.25
436.79	603.62
437.16	614.90
437.53	626.94
437.90	639.01
438.27	650.84
438.64	663.63
439.01	675.26
439.38	685.92
439.75	696.26
440.13	708.03
440.50	719.20
440.87	728.17
441.24	738.04
441.61	748.84
441.98	756.85
442.35	766.36
442.72	776.05
443.09	785.31
443.46	791.37
443.83	796.01
444.20	799.88
444.57	805.43
444.94	808.79
445.31	812.25
445.68	815.27
446.05	817.61
446.42	817.48
446.79	817.10
447.16	816.85
447.53	816.65
447.90	813.38
448.27	810.29
448.64	805.26
449.01	801.86
449.37	794.56
449.74	787.93
450.11	779.32
450.48	769.82
450.85	760.28
451.22	752.10
451.59	744.03
451.96	736.75
452.33	726.13
452.70	716.67
453.07	705.18
453.43	693.69
453.80	682.47
454.17	671.72
454.54	661.79
454.91	650.56
455.28	639.95
455.65	629.93
456.02	619.28
456.38	610.72
456.75	599.76
457.12	590.92
457.49	582.00
457.86	573.54
458.23	566.09
458.59	557.88
458.96	549.46
459.33	542.06
459.70	534.51
460.07	528.74
460.43	521.96
460.80	515.61
461.17	510.09
461.54	504.13
461.91	498.52
462.27	492.83
462.64	488.16
463.01	482.85
463.38	477.48
463.74	472.65
464.11	468.35
464.48	464.46
464.85	460.26
465.21	457.06
465.58	453.48
465.95	449.44
466.32	446.23
466.68	443.07
467.05	439.90
467.42	436.81
467.78	433.51
468.15	430.47
468.52	428.23
468.88	425.27
469.25	422.58
469.62	420.43
469.98	418.13
470.35	416.05
470.72	414.17
471.08	412.28
471.45	410.69
471.82	408.91
472.18	407.05
472.55	405.84
472.92	404.32
473.28	403.16
473.65	401.89
474.02	400.68
474.38	399.66
474.75	399.05
475.11	398.21
475.48	397.81
475.85	397.37
476.21	397.11
476.58	396.91
476.94	397.05
477.31	397.08
477.67	397.13
478.04	397.41
478.41	397.82
478.77	398.40
479.14	398.75
479.50	399.50
479.87	400.47
480.23	401.42
480.60	402.33
480.96	403.23
481.33	404.63
481.69	405.99
482.06	407.34
482.42	408.57
482.79	410.12
483.15	411.93
483.52	413.99
483.88	415.93
484.25	418.01
484.61	420.18
484.98	422.53
485.34	425.18
485.71	427.96
486.07	430.92
486.44	433.83
486.80	437.14
487.17	440.50
487.53	444.17
487.90	448.00
488.26	452.18
488.62	456.58
488.99	460.97
489.35	465.59
489.72	470.55
490.08	475.77
490.44	481.11
490.81	486.66
491.17	492.38
491.54	498.54
491.90	504.81
492.26	511.52
492.63	518.56
492.99	525.90
493.36	533.39
493.72	541.27
494.08	549.36
494.45	557.84
494.81	566.70
495.17	575.81
495.54	585.42
495.90	595.46
496.26	605.69
496.63	616.23
496.99	627.15
497.35	638.58
497.72	650.31
498.08	662.36
498.44	674.75
498.80	687.80
499.17	701.16
499.53	714.97
499.89	729.22
500.26	743.69
500.62	758.50
500.98	774.18
501.34	789.88
501.71	806.36
502.07	823.16
502.43	840.43
502.79	857.91
503.16	875.90
503.52	894.08
503.88	912.71
504.24	931.78
504.60	951.11
504.97	971.09
505.33	991.56
505.69	1013.06
506.05	1034.83
506.41	1056.55
506.78	1078.41
507.14	1100.82
507.50	1123.73
507.86	1147.03
508.22	1170.58
508.59	1194.03
508.95	1218.53
509.31	1243.57
509.67	1269.20
510.03	1294.78
510.39	1320.31
510.75	1345.96
511.12	1372.01
511.48	1398.30
511.84	1424.56
512.20	1451.20
512.56	1478.93
512.92	1506.50
513.28	1533.44
513.64	1560.82
514.00	1588.60
514.37	1616.61
514.73	1644.71
515.09	1672.17
515.45	1699.94
515.81	1727.94
516.17	1755.74
516.53	1782.88
516.89	1809.78
517.25	1837.04
517.61	1864.10
517.97	1891.86
518.33	1919.04
518.69	1946.14
519.05	1973.66
519.41	2001.36
519.77	2029.12
520.13	2055.33
520.49	2081.58
520.85	2108.27
521.21	2134.35
521.57	2160.74
521.93	2186.14
522.29	2212.22
522.65	2238.14
523.01	2263.76
523.37	2288.65
523.73	2314.27
524.09	2339.63
524.45	2364.78
524.81	2389.25
525.17	2413.66
525.53	2437.19
525.89	2461.17
526.25	2484.80
526.61	2506.74
526.97	2528.76
527.33	2550.62
527.68	2572.33
528.04	2593.68
528.40	2613.82
528.76	2634.10
529.12	2653.88
529.48	2674.37
529.84	2692.06
530.20	2710.13
530.56	2727.45
530.91	2745.00
531.27	2761.85
531.63	2777.80
531.99	2793.47
532.35	2808.91
532.71	2823.86
533.07	2839.24
533.42	2852.61
533.78	2866.19
534.14	2880.90
534.50	2894.44
534.86	2908.45
535.21	2920.23
535.57	2931.87
535.93	2943.26
536.29	2952.80
536.65	2962.29
537.00	2970.35
537.36	2979.75
537.72	2988.20
538.08	2996.21
538.44	3002.88
538.79	3009.35
539.15	3014.49
539.51	3018.79
539.87	3021.84
540.22	3023.28
540.58	3024.98
540.94	3027.49
541.29	3028.83
541.65	3028.77
542.01	3028.31
542.37	3026.16
542.72	3025.74
543.08	3023.48
543.44	3021.40
543.79	3019.14
544.15	3015.98
544.51	3012.84
544.87	3008.74
545.22	3003.61
545.58	2998.20
545.94	2993.05
546.29	2986.37
546.65	2979.85
547.01	2973.57
547.36	2967.86
547.72	2962.20
548.07	2954.80
548.43	2946.20
548.79	2937.34
549.14	2928.68
549.50	2920.13
549.86	2910.62
550.21	2899.33
550.57	2889.39
550.92	2877.57
551.28	2866.05
551.64	2854.93
551.99	2843.51
552.35	2831.58
552.70	2819.56
553.06	2808.00
553.41	2795.99
553.77	2783.76
554.13	2771.51
554.48	2757.98
554.84	2743.42
555.19	2729.41
555.55	2715.30
555.90	2701.76
556.26	2688.41
556.61	2673.95
556.97	2658.39
557.32	2643.33
557.68	2628.64
558.03	2613.52
558.39	2599.44
558.74	2586.00
559.10	2570.53
559.45	2555.08
559.81	2540.37
560.16	2525.27
560.52	2509.88
560.87	2494.72
561.23	2479.09
561.58	2464.13
561.94	2448.72
562.29	2432.81
562.64	2417.03
563.00	2401.30
563.35	2385.72
563.71	2369.77
564.06	2353.93
564.42	2338.60
564.77	2323.37
565.12	2307.75
565.48	2291.85
565.83	2276.12
566.19	2260.30
566.54	2244.74
566.89	2228.76
567.25	2212.70
567.60	2197.46
567.96	2181.51
568.31	2164.12
568.66	2147.71
569.02	2131.85
569.37	2116.56
569.72	2101.89
570.08	2086.71
570.43	2070.90
570.78	2054.87
571.14	2038.72
571.49	2022.58
571.84	2006.73
572.20	1989.56
572.55	1973.26
572.90	1957.08
573.26	1940.91
573.61	1924.07
573.96	1907.77
574.31	1891.29
574.67	1874.53
575.02	1857.47
575.37	1840.44
575.72	1824.29
576.08	1807.77
576.43	1790.45
576.78	1773.40
577.13	1756.57
577.49	1739.97
577.84	1723.89
578.19	1707.31
578.54	1690.74
578.90	1674.04
579.25	1657.19
579.60	1641.69
579.95	1625.82
580.30	1609.86
580.66	1593.62
581.01	1577.49
581.36	1561.46
581.71	1546.34
582.06	1531.19
582.42	1515.81
582.77	1500.93
583.12	1486.25
583.47	1471.62
583.82	1457.16
584.17	1442.13
584.53	1427.15
584.88	1412.54
585.23	1397.75
585.58	1383.41
585.93	1368.89
586.28	1355.50
586.63	1341.92
586.98	1327.81
587.34	1314.16
587.69	1300.34
588.04	1286.87
588.39	1273.68
588.74	1260.05
589.09	1246.56
589.44	1232.75
589.79	1219.60
590.14	1206.47
590.49	1193.39
590.84	1180.56
591.19	1168.11
591.54	1155.77
591.89	1143.04
592.25	1130.63
592.60	1118.11
592.95	1105.71
593.30	1093.78
593.65	1081.50
594.00	1069.51
594.35	1058.49
594.70	1046.72
595.05	1035.58
595.40	1024.28
595.75	1012.82
596.10	1002.05
596.45	991.22
596.80	980.82
597.15	970.37
597.50	959.92
597.85	949.77
598.19	939.63
598.54	929.46
598.89	919.86
599.24	910.66
599.59	901.23
599.94	892.51
600.29	883.78
600.64	874.83
600.99	865.76
601.34	857.06
601.69	847.81
602.04	839.51
602.39	831.10
602.74	822.90
603.08	814.83
603.43	806.76
603.78	798.69
604.13	790.67
604.48	782.70
604.83	774.98
605.18	767.31
605.53	759.80
605.87	752.25
606.22	744.82
606.57	737.31
606.92	729.75
607.27	722.21
607.62	714.89
607.96	707.84
608.31	701.33
608.66	694.68
609.01	688.33
609.36	681.92
609.70	675.47
610.05	669.01
610.40	662.76
610.75	656.49
611.10	650.45
611.44	644.41
611.79	638.52
612.14	632.53
612.49	626.64
612.83	621.04
613.18	615.51
613.53	609.99
613.88	604.61
614.22	599.60
614.57	594.51
614.92	589.54
615.27	584.70
615.61	579.72
615.96	574.79
616.31	569.86
616.65	565.10
617.00	560.47
617.35	555.92
617.70	551.38
618.04	546.95
618.39	542.65
618.74	538.61
619.08	534.51
619.43	530.56
619.78	526.55
620.12	522.52
620.47	518.71
620.82	515.02
621.16	511.34
621.51	507.72
621.85	504.08
622.20	500.52
622.55	496.94
622.89	493.42
623.24	490.09
623.59	486.82
623.93	483.64
624.28	480.60
624.62	477.73
624.97	474.90
625.32	471.99
625.66	469.04
626.01	466.05
626.35	463.25
626.70	460.38
627.04	457.76
627.39	455.07
627.73	452.45
628.08	449.88
628.43	447.34
628.77	444.73
629.12	442.23
629.46	439.86
629.81	437.63
630.15	435.32
630.50	433.04
630.84	430.81
631.19	428.62
631.53	426.52
631.88	424.26
632.22	422.08
632.57	420.21
632.91	418.29
633.26	416.45
633.60	414.62
633.95	412.88
634.29	410.99
634.64	409.20
634.98	407.29
635.32	405.56
635.67	404.00
636.01	402.42
636.36	400.90
636.70	399.46
637.05	397.85
637.39	396.41
637.73	394.97
638.08	393.60
638.42	392.27
638.77	390.80
639.11	389.30
639.45	387.86
639.80	386.36
640.14	384.96
640.49	383.55
640.83	382.15
641.17	380.81
641.52	379.49
641.86	378.21
642.20	377.08
642.55	375.77
642.89	374.48
643.23	373.27
643.58	372.18
643.92	370.93
644.26	369.79
644.61	368.68
644.95	367.53
645.29	366.31
645.64	365.08
645.98	363.97
646.32	362.99
646.66	361.93
647.01	360.90
647.35	359.97
647.69	359.00
648.04	358.11
648.38	357.15
648.72	356.24
649.06	355.32
649.41	354.38
649.75	353.49
650.09	352.64
650.43	351.76
650.78	350.84
651.12	349.99
651.46	349.13
651.80	348.29
652.14	347.52
652.49	346.81
652.83	346.03
653.17	345.21
653.51	344.42
653.85	343.76
654.20	343.04
654.54	342.22
654.88	341.45
655.22	340.74
655.56	340.00
655.90	339.30
656.25	338.60
656.59	337.93
656.93	337.29
657.27	336.69
657.61	336.03
657.95	335.42
658.29	334.79
658.64	334.19
658.98	333.52
659.32	332.87
659.66	332.25
660.00	331.69
660.34	331.13
660.68	330.51
661.02	329.83
661.36	329.20
661.70	328.62
662.05	328.04
662.39	327.48
662.73	327.00
663.07	326.56
663.41	326.08
663.75	325.54
664.09	325.00
664.43	324.35
664.77	323.81
665.11	323.22
665.45	322.68
665.79	322.17
666.13	321.63
666.47	321.09
666.81	320.51
667.15	319.89
667.49	319.40
667.83	318.97
668.17	318.51
668.51	318.08
668.85	317.67
669.19	317.31
669.53	316.77
669.87	316.21
670.21	315.65
670.55	315.11
670.89	314.71
671.23	314.26
671.57	313.86
671.91	313.51
672.25	313.16
672.58	312.81
672.92	312.37
673.26	312.03
673.60	311.67
673.94	311.30
674.28	310.97
674.62	310.60
674.96	310.17
675.30	309.78
675.64	309.35
675.97	308.89
676.31	308.41
676.65	307.99
676.99	307.67
677.33	307.23
677.67	306.85
678.01	306.36
678.34	305.95
678.68	305.56
679.02	305.11
679.36	304.67
679.70	304.22
680.04	303.83
680.37	303.40
680.71	303.02
681.05	302.66
681.39	302.24
681.73	301.78
682.06	301.35
682.40	300.96
682.74	300.60
683.08	300.30
683.42	299.92
683.75	299.58
684.09	299.11
684.43	298.73
684.77	298.32
685.10	297.94
685.44	297.54
685.78	297.13
686.12	296.73
686.45	296.31
686.79	295.87
687.13	295.46
687.46	295.02
687.80	294.61
688.14	294.13
688.48	293.71
688.81	293.28
689.15	292.92
689.49	292.48
689.82	292.04
690.16	291.50
690.50	291.05
690.83	290.59
691.17	290.14
691.51	289.71
691.84	289.31
692.18	288.87
692.52	288.40
692.85	287.96
693.19	287.57
693.52	287.14
693.86	286.70
694.20	286.27
694.53	285.84
694.87	285.37
695.21	284.91
695.54	284.47
695.88	284.01
696.21	283.52
696.55	283.06
696.88	282.62
697.22	282.19
697.56	281.78
697.89	281.30
698.23	280.89
698.56	280.44
698.90	280.02
699.23	279.56
699.57	279.16
699.90	278.73
700.24	278.27
700.58	277.87
700.91	277.50
701.25	277.25
701.58	276.93
701.92	276.57
702.25	276.19
702.59	275.78
702.92	275.39
703.26	274.97
703.59	274.56
703.93	274.30
704.26	273.90
704.60	273.49
704.93	273.10
705.26	272.68
705.60	272.32
705.93	271.87
706.27	271.56
706.60	271.21
706.94	270.89
707.27	270.46
707.61	270.07
707.94	269.63
708.27	269.07
708.61	268.60
708.94	268.18
709.28	267.78
709.61	267.41
709.94	267.06
710.28	266.72
710.61	266.39
710.95	265.87
711.28	265.63
711.61	265.27
711.95	264.95
712.28	264.59
712.61	264.21
712.95	263.96
713.28	263.67
713.61	263.28
713.95	262.88
714.28	262.55
714.61	262.19
714.95	261.87
715.28	261.53
715.61	261.22
715.95	260.93
716.28	260.60
716.61	260.31
716.95	259.97
717.28	259.66
717.61	259.34
717.94	259.05
718.28	258.62
718.61	258.31
718.94	257.99
719.27	257.70
719.61	257.43
719.94	257.10
720.27	256.73
720.60	256.44
720.94	256.15
721.27	255.89
721.60	255.64
721.93	255.36
722.27	255.13
722.60	254.86
722.93	254.55
723.26	254.31
723.59	254.01
723.93	253.77
724.26	253.52
724.59	253.25
724.92	253.02
725.25	252.83
725.59	252.58
725.92	252.36
726.25	252.11
726.58	251.86
726.91	251.61
727.24	251.38
727.57	251.14
727.91	250.88
728.24	250.67
728.57	250.42
728.90	250.21
729.23	249.92
729.56	249.78
729.89	249.57
730.22	249.34
730.55	249.12
730.89	248.90
731.22	248.67
731.55	248.46
731.88	248.25
732.21	248.00
732.54	247.78
732.87	247.58
733.20	247.40
733.53	247.21
733.86	247.03
734.19	246.81
734.52	246.65
734.85	246.60
735.18	246.39
735.51	246.26
735.84	246.09
736.17	245.96
736.50	245.69
736.83	245.72
737.16	245.55
737.49	245.37
737.82	245.18
738.15	245.02
738.48	244.84
738.81	244.65
739.14	244.46
739.47	244.28
739.80	244.09
740.13	243.93
740.46	243.72
740.79	243.52
741.12	243.35
741.45	243.14
741.78	242.87
742.11	242.74
742.44	242.52
742.77	242.37
743.10	242.17
743.43	242.00
743.75	241.65
744.08	241.77
744.41	241.59
744.74	241.43
745.07	241.24
745.40	241.13
745.73	241.06
746.06	240.92
746.39	240.80
746.71	240.65
747.04	240.49
747.37	240.34
747.70	240.23
748.03	240.10
748.36	240.00
748.68	239.85
749.01	239.67
749.34	239.55
749.67	239.41
750.00	239.31
750.33	239.32
750.65	239.20
750.98	238.80
751.31	238.70
751.64	238.60
751.97	238.58
752.29	238.43
752.62	238.23
752.95	238.10
753.28	237.95
753.60	237.82
753.93	237.74
754.26	237.64
754.59	237.46
754.91	237.31
755.24	237.18
755.57	237.07
755.90	236.95
756.22	236.81
756.55	236.67
756.88	236.52
757.20	236.29
757.53	236.13
757.86	236.02
758.19	235.91
758.51	235.80
758.84	235.60
759.17	235.48
759.49	235.40
759.82	235.38
760.15	235.30
760.47	235.21
760.80	235.06
761.13	234.99
761.45	234.90
761.78	234.82
762.11	234.73
762.43	234.61
762.76	234.52
763.08	234.46
763.41	234.39
763.74	234.31
764.06	234.22
764.39	234.15
764.71	234.06
765.04	233.96
765.37	233.86
765.69	233.78
766.02	233.70
766.34	233.61
766.67	233.46
767.00	233.41
767.32	233.43
767.65	233.47
767.97	233.38
768.30	233.33
768.62	233.25
768.95	233.16
769.27	233.10
769.60	233.05
769.92	232.94
770.25	232.84
770.57	232.74
770.90	232.68
771.22	232.59
771.55	232.55
771.87	232.49
772.20	232.43
772.52	232.52
772.85	232.68
773.17	232.62
773.50	232.55
773.82	232.45
774.15	232.31
774.47	232.14
774.80	232.07
775.12	232.01
775.45	231.95
775.77	231.91
776.09	231.87
776.42	231.82
776.74	231.84
777.07	231.79
777.39	231.74
777.72	231.68
778.04	231.66
778.36	231.59
778.69	231.55
779.01	231.51
779.33	231.31
779.66	231.06
779.98	231.01
780.31	230.98
780.63	231.02
780.95	231.01
781.28	230.96
781.60	230.90
781.92	230.87
782.25	230.82
782.57	230.78
782.89	230.73
783.22	230.68
783.54	230.60
783.86	230.59
784.19	230.54
784.51	230.56
784.83	230.50
785.16	230.46
785.48	230.43
785.80	230.39
786.12	230.38
786.45	230.34
786.77	230.32
787.09	230.27
787.42	230.17
787.74	230.14
788.06	230.12
788.38	230.09
788.71	230.05
789.03	230.03
789.35	230.02
789.67	229.97
789.99	229.95
790.32	229.90
790.64	229.89
790.96	230.03
791.28	229.93
791.61	229.90
791.93	229.89
792.25	229.85
792.57	229.94
792.89	229.88
793.21	229.86
793.54	229.82
793.86	229.77
794.18	229.75
794.50	229.69
794.82	229.67
795.14	229.66
795.47	229.67
795.79	229.65
796.11	229.58
796.43	229.56
796.75	229.52
797.07	229.51
797.39	229.47
797.71	229.30
798.04	229.29
798.36	229.28
798.68	229.25
799.00	229.24
799.32	229.13
799.64	229.14
799.96	229.11
800.28	229.13
800.60	229.11
800.92	229.11
801.24	229.08
801.56	229.07
801.89	229.03
802.21	229.01
802.53	228.96
802.85	228.98
803.17	229.05
803.49	228.99
803.81	228.95
804.13	228.92
804.45	228.88
804.77	228.88
805.09	228.86
805.41	228.82
805.73	228.77
806.05	228.70
806.37	228.67
806.69	228.63
807.01	228.60
807.33	228.59
807.65	228.50
807.97	228.56
808.28	228.51
808.60	228.49
808.92	228.45
809.24	228.55
809.56	228.50
809.88	228.42
810.20	228.42
810.52	228.44
810.84	228.40
811.16	228.37
811.48	228.34
811.80	228.39
812.12	228.37
812.43	228.40
812.75	228.39
813.07	228.36
813.39	228.36
813.71	228.32
814.03	228.29
814.35	228.30
814.67	228.22
814.98	228.20
815.30	228.19
815.62	228.15
815.94	228.01
816.26	228.02
816.58	227.97
816.89	227.97
817.21	227.91
817.53	227.92
817.85	227.92
818.17	227.91
818.48	227.82
818.80	227.85
819.12	227.80
819.44	227.76
819.76	227.73
820.07	227.72
820.39	227.71
820.71	227.71
821.03	227.70
821.34	227.67
821.66	227.68
821.98	227.69
822.30	227.67
822.61	227.77
822.93	227.74
823.25	227.73
823.57	227.70
823.88	227.71
824.20	227.70
824.52	227.71
824.83	227.70
825.15	227.67
825.47	227.65
825.79	227.66
826.10	227.64
826.42	227.63
826.74	227.64
827.05	227.62
827.37	227.62
827.69	227.60
828.00	227.60
828.32	227.59
828.64	227.56
828.95	227.65
829.27	227.58
829.58	227.58
829.90	227.60
830.22	227.61
830.53	227.56
830.85	227.54
831.17	227.48
831.48	227.47
831.80	227.47
832.11	227.45
832.43	227.41
832.75	227.40
833.06	227.51
833.38	227.46
833.69	227.44
834.01	227.44
834.32	227.43
834.64	227.41
834.96	227.40
835.27	227.40
835.59	227.33
835.90	227.30
836.22	227.29
836.53	227.25
836.85	227.22
837.16	227.40
837.48	227.40
837.79	227.46
838.11	227.46
838.42	227.46
838.74	227.47
839.05	227.46
839.37	227.45
839.68	227.33
840.00	227.32
840.31	227.34
840.63	227.31
840.94	227.29
841.26	227.27
841.57	227.26
841.88	227.27
842.20	227.23
842.51	227.19
842.83	227.18
843.14	227.35
843.46	227.34
843.77	227.22
844.08	227.21
844.40	227.14
844.71	227.12
845.03	227.10
845.34	227.08
845.65	227.07
845.97	227.07
846.28	227.08
846.60	227.09
846.91	227.06
847.22	227.05
847.54	227.09
847.85	227.09
848.16	227.08
848.48	227.04
848.79	227.11
849.10	227.13
849.42	227.14
849.73	226.96
850.04	226.96
850.36	226.89
850.67	226.92
850.98	226.92
851.30	226.94
851.61	226.93
851.92	226.92
852.23	226.97
852.55	226.98
852.86	226.98
853.17	226.99
853.49	227.02
853.80	227.05
854.11	227.06
854.42	227.08
854.74	227.06
855.05	227.07
855.36	226.98
855.67	226.97
855.99	226.97
856.30	227.18
856.61	227.18
856.92	227.18
857.23	227.18
857.55	227.16
857.86	227.14
858.17	227.17
858.48	227.14
858.79	227.10
859.11	227.11
859.42	227.09
859.73	227.06
860.04	227.03
860.35	226.98
860.66	226.92
860.98	226.91
861.29	226.94
861.60	226.92
861.91	226.96
862.22	226.93
862.53	226.90
862.84	226.68
863.16	226.72
863.47	226.68
863.78	226.66
864.09	226.68
864.40	226.69
864.71	226.68
865.02	226.71
865.33	226.68
865.64	226.65
865.95	226.66
866.27	226.76
866.58	226.75
866.89	226.77
867.20	226.77
867.51	226.74
867.82	226.72
868.13	226.78
868.44	226.73
868.75	226.77
869.06	226.78
869.37	226.80
869.68	226.75
869.99	226.79
870.30	226.79
870.61	226.81
870.92	226.78
871.23	226.76
871.54	226.78
871.85	226.83
872.16	226.85
872.47	226.83
872.78	226.74
873.09	226.75
873.40	226.74
873.71	226.75
874.02	226.76
874.33	226.75
874.64	226.71
874.95	226.74
875.26	226.70
875.56	226.70
875.87	226.68
876.18	226.68
876.49	226.86
876.80	226.84
877.11	226.80
877.42	226.81
877.73	226.82
878.04	226.79
878.35	226.79
878.66	226.79
878.96	226.79
879.27	226.78
879.58	226.77
879.89	226.76
880.20	226.81
880.51	226.80
880.82	226.80
881.12	226.81
881.43	226.77
881.74	226.75
882.05	226.74
882.36	226.76
882.67	226.77
882.97	226.57
883.28	226.56
883.59	226.56
883.90	226.57
884.21	226.59
884.51	226.58
884.82	226.55
885.13	226.55
885.44	226.54
885.74	226.55
886.05	226.54
886.36	226.54
886.67	226.48
886.98	226.57
887.28	226.58
887.59	226.58
887.90	226.59
888.20	226.59
888.51	226.62
888.82	226.59
889.13	226.61
889.43	226.77
889.74	226.75
890.05	226.75
890.35	226.73
890.66	226.69
890.97	226.68
891.28	226.66
891.58	226.66
891.89	226.66
892.20	226.64
892.50	226.62
892.81	226.61
893.12	226.61
893.42	226.51
893.73	226.51
894.04	226.51
894.34	226.52
894.65	226.52
894.95	226.50
895.26	226.50
895.57	226.57
895.87	226.39
896.18	226.43
896.48	226.44
896.79	226.44
897.10	226.47
897.40	226.48
897.71	226.50
898.01	226.48
898.32	226.50
898.63	226.50
898.93	226.52
899.24	226.52
899.54	226.51
899.85	226.51
900.15	226.49
900.46	226.50
900.76	226.50
901.07	226.50
901.38	226.49
901.68	226.51
901.99	226.41
902.29	226.42
902.60	226.40
902.90	226.38
903.21	226.38
903.51	226.36
903.82	226.40
904.12	226.39
904.43	226.40
904.73	226.39
905.03	226.40
905.34	226.57
905.64	226.56
905.95	226.56
906.25	226.56
906.56	226.55
906.86	226.54
907.17	226.52
907.47	226.54
907.77	226.52
908.08	226.48
908.38	226.49
908.69	226.51
908.99	226.54
909.30	226.54
909.60	226.54
909.90	226.53
910.21	226.48
910.51	226.46
910.81	226.46
911.12	226.47
911.42	226.47
911.73	226.28
912.03	226.29
912.33	226.33
912.64	226.32
912.94	226.30
913.24	226.28
913.55	226.26
913.85	226.25
914.15	226.29
914.46	226.32
914.76	226.30
915.06	226.29
915.37	226.25
915.67	226.25
915.97	226.25
916.27	226.23
916.58	226.24
916.88	226.24
917.18	226.22
917.49	226.34
917.79	226.33
918.09	226.36
918.39	226.39
918.70	226.38
919.00	226.39
919.30	226.48
919.60	226.47
919.91	226.45
920.21	226.46
920.51	226.42
920.81	226.40
921.12	226.44
921.42	226.43
921.72	226.45
922.02	226.46
922.32	226.48
922.63	226.49
922.93	226.59
923.23	226.60
923.53	226.59
923.83	226.46
924.13	226.48
924.44	226.47
924.74	226.50
925.04	226.54
925.34	226.53
925.64	226.46
925.94	226.46
926.24	226.56
926.55	226.54
926.85	226.57
927.15	226.57
927.45	226.56
927.75	226.56
928.05	226.56
928.35	226.54
928.65	226.56
928.95	226.58
929.26	226.49
929.56	226.53
929.86	226.55
930.16	226.55
930.46	226.53
930.76	226.54
931.06	226.45
931.36	226.40
931.66	226.43
931.96	226.45
932.26	226.46
932.56	226.38
932.86	226.40
933.16	226.40
933.46	226.39
933.76	226.36
934.06	226.39
934.36	226.46
934.66	226.46
934.96	226.43
935.26	226.43
935.56	226.45
935.86	226.40
936.16	226.38
936.46	226.36
936.76	226.35
937.06	226.33
937.36	226.35
937.66	226.36
937.96	226.34
938.26	226.30
938.56	226.29
938.86	226.30
939.16	226.33
939.46	226.35
939.76	226.36
940.06	226.36
940.35	226.32
940.65	226.23
940.95	226.24
941.25	226.20
941.55	226.18
941.85	226.17
942.15	226.21
942.45	226.26
942.75	226.26
943.04	226.27
943.34	226.31
943.64	226.28
943.94	226.25
944.24	226.25
944.54	226.27
944.84	226.27
945.13	226.25
945.43	226.22
945.73	226.21
946.03	226.19
946.33	226.18
946.62	226.16
946.92	226.17
947.22	226.18
947.52	226.20
947.82	226.22
948.11	226.20
948.41	226.16
948.71	226.11
949.01	226.12
949.31	226.10
949.60	226.09
949.90	226.12
950.20	226.12
950.50	226.11
950.79	226.10
951.09	226.12
951.39	226.12
951.69	226.10
951.98	226.13
952.28	226.14
952.58	226.14
952.87	226.14
953.17	226.17
953.47	226.14
953.76	226.14
954.06	226.11
954.36	226.09
954.66	226.09
954.95	226.14
955.25	226.16
955.55	226.17
955.84	226.14
956.14	226.15
956.44	226.17
956.73	226.14
957.03	226.15
957.32	226.14
957.62	226.14
957.92	226.18
958.21	226.16
958.51	226.37
958.81	226.39
959.10	226.41
959.40	226.45
959.69	226.46
959.99	226.49
960.29	226.49
960.58	226.48
960.88	226.55
961.17	226.53
961.47	226.54
961.76	226.52
962.06	226.55
962.36	226.53
962.65	226.54
962.95	226.56
963.24	226.54
963.54	226.54
963.83	226.56
964.13	226.54
964.42	226.52
964.72	226.37
965.01	226.37
965.31	226.36
965.60	226.31
965.90	226.43
966.19	226.38
966.49	226.40
966.78	226.39
967.08	226.37
967.37	226.37
967.67	226.34
967.96	226.37
968.26	226.36
968.55	226.38
968.85	226.37
969.14	226.36
969.43	226.36
969.73	226.34
970.02	226.33
970.32	226.32
970.61	226.29
970.91	226.23
971.20	226.21
971.49	226.19
971.79	226.21
972.08	226.08
972.38	226.10
972.67	226.08
972.96	226.11
973.26	226.07
973.55	226.13
973.85	226.12
974.14	226.10
974.43	226.11
974.73	226.08
975.02	226.07
975.31	226.06
975.61	226.07
975.90	226.05
976.19	226.04
976.49	226.05
976.78	226.06
977.07	226.06
977.37	226.07
977.66	226.09
977.95	226.06
978.24	226.08
978.54	226.11
978.83	226.09
979.12	226.08
979.42	226.08
979.71	226.04
980.00	226.05
980.29	226.05
980.59	226.02
980.88	226.06
981.17	226.06
981.46	226.06
981.76	226.07
982.05	226.13
982.34	226.14
982.63	226.15
982.93	226.15
983.22	226.19
983.51	226.20
983.80	226.23
984.09	226.25
984.39	226.24
984.68	226.21
984.97	226.23
985.26	226.21
985.55	226.23
985.85	226.20
986.14	226.23
986.43	226.25
986.72	226.24
987.01	226.18
987.30	226.18
987.59	226.17
987.89	226.18
988.18	226.12
988.47	226.10
988.76	226.09
989.05	226.07
989.34	226.04
989.63	226.08
989.92	226.06
990.22	226.03
990.51	226.03
990.80	226.01
991.09	226.03
991.38	226.05
991.67	226.03
991.96	226.03
992.25	226.02
992.54	225.99
992.83	226.00
993.12	226.01
993.41	226.04
993.70	226.11
993.99	226.14
994.28	226.17
994.58	226.20
994.87	226.19
995.16	226.19
995.45	226.17
995.74	226.11
996.03	226.14
996.32	226.17
996.61	226.21
996.90	226.20
997.19	226.20
997.48	226.20
997.77	226.18
998.06	226.20
998.34	226.18
998.63	226.19
998.92	226.19
999.21	226.22
999.50	226.21
999.79	226.15
1000.08	226.14
1000.37	226.13
1000.66	226.11
1000.95	226.16
1001.24	226.17
1001.53	226.19
1001.82	226.19
1002.11	226.14
1002.40	226.15
1002.68	226.19
1002.97	226.32
1003.26	226.30
1003.55	226.27
1003.84	226.29
1004.13	226.34
1004.42	226.33
1004.71	226.33
1004.99	226.32
1005.28	226.35
1005.57	226.34
1005.86	226.32
1006.15	226.31
1006.44	226.28
1006.72	226.30
1007.01	226.27
1007.30	226.27
1007.59	226.25
1007.88	226.24
1008.17	226.26
1008.45	226.22
1008.74	226.15
1009.03	226.06
1009.32	226.07
1009.60	226.07
1009.89	226.05
1010.18	225.98
1010.47	225.97
1010.76	225.97
1011.04	225.97
1011.33	225.97
1011.62	225.98
1011.91	225.99
1012.19	226.00
1012.48	226.01
1012.77	226.00
1013.05	226.06
1013.34	226.06
1013.63	226.05
1013.92	226.06
1014.20	226.05
1014.49	226.06
1014.78	226.08
1015.06	226.01
1015.35	226.02
1015.64	226.04
1015.92	226.07
1016.21	226.08
1016.50	226.09
1016.78	226.11
1017.07	226.12
1017.36	226.09
1017.64	226.07
1017.93	226.08
1018.22	226.06
1018.50	226.06
1018.79	226.05
1019.08	225.99
1019.36	226.00
1019.65	225.99
1019.93	226.04
1020.22	226.07
1020.51	226.16
1020.79	226.13
1021.08	225.77
1021.36	225.79
1021.65	226.08
1021.94	225.92
1022.22	226.12
1022.51	225.77
1022.79	226.94
1023.08	226.36
1023.36	228.16
1023.65	225.63
>>>>>End Processed Spectral Data<<<<<
