SpectraSuite Data File
++++++++++++++++++++++++++++++++++++
Date: Tue Oct 06 16:56:47 EDT 2015
User: lab3
Dark Spectrum Present: No
Reference Spectrum Present: No
Number of Sampled Component Spectra: 1
Spectrometers: USB2E7196
Integration Time (usec): 66000 (USB2E7196)
Spectra Averaged: 1000 (USB2E7196)
Boxcar Smoothing: 10 (USB2E7196)
Correct for Electrical Dark: No (USB2E7196)
Strobe/Lamp Enabled: No (USB2E7196)
Correct for Detector Non-linearity: No (USB2E7196)
Correct for Stray Light: No (USB2E7196)
Number of Pixels in Processed Spectrum: 2048
>>>>>Begin Processed Spectral Data<<<<<
339.09	0.00
339.48	215.19
339.86	216.64
340.24	217.97
340.63	219.43
341.01	223.40
341.39	222.17
341.78	223.58
342.16	224.91
342.54	225.12
342.93	213.67
343.31	224.45
343.69	224.99
344.07	225.45
344.46	225.91
344.84	226.31
345.22	226.51
345.60	226.78
345.99	227.00
346.37	227.14
346.75	227.26
347.13	227.35
347.52	227.43
347.90	227.55
348.28	227.58
348.66	227.67
349.05	227.67
349.43	227.75
349.81	227.82
350.19	227.90
350.57	227.99
350.96	228.10
351.34	228.22
351.72	228.33
352.10	228.46
352.48	228.53
352.87	228.58
353.25	228.65
353.63	228.71
354.01	228.76
354.39	228.85
354.77	228.93
355.15	229.06
355.54	229.11
355.92	229.12
356.30	229.20
356.68	229.39
357.06	229.47
357.44	229.51
357.82	229.57
358.20	229.78
358.58	229.83
358.97	229.89
359.35	229.98
359.73	230.08
360.11	230.13
360.49	230.21
360.87	230.26
361.25	230.35
361.63	230.47
362.01	230.53
362.39	230.55
362.77	230.60
363.15	230.62
363.53	230.65
363.91	230.70
364.29	230.73
364.67	230.59
365.05	230.61
365.43	230.65
365.81	230.70
366.19	230.64
366.57	230.72
366.95	230.73
367.33	230.68
367.71	230.67
368.09	230.70
368.47	230.70
368.85	230.68
369.23	230.68
369.61	230.61
369.99	230.65
370.37	230.66
370.75	230.77
371.13	230.73
371.51	230.69
371.89	230.68
372.27	230.66
372.65	230.65
373.03	230.61
373.41	230.56
373.78	230.50
374.16	230.37
374.54	230.27
374.92	230.22
375.30	230.19
375.68	230.12
376.06	230.08
376.44	230.01
376.82	229.97
377.19	229.92
377.57	229.87
377.95	229.76
378.33	229.70
378.71	229.51
379.09	229.47
379.47	229.45
379.84	229.39
380.22	229.32
380.60	229.25
380.98	229.20
381.36	229.16
381.73	229.10
382.11	229.09
382.49	229.06
382.87	229.00
383.25	228.96
383.62	229.13
384.00	229.06
384.38	229.03
384.76	229.04
385.13	229.06
385.51	229.02
385.89	228.97
386.27	228.95
386.64	228.93
387.02	228.88
387.40	228.84
387.78	228.81
388.15	228.79
388.53	228.75
388.91	228.73
389.29	228.71
389.66	228.71
390.04	228.66
390.42	228.67
390.79	228.67
391.17	228.66
391.55	228.44
391.92	228.43
392.30	228.45
392.68	228.40
393.05	228.37
393.43	228.40
393.81	228.41
394.18	228.38
394.56	228.40
394.94	228.46
395.31	228.46
395.69	228.53
396.06	228.58
396.44	228.63
396.82	228.65
397.19	228.77
397.57	228.80
397.95	228.88
398.32	228.87
398.70	228.94
399.07	229.04
399.45	229.10
399.82	229.17
400.20	229.23
400.58	229.33
400.95	229.35
401.33	229.48
401.70	229.71
402.08	229.85
402.45	229.99
402.83	230.15
403.20	230.31
403.58	230.45
403.95	230.66
404.33	230.88
404.71	231.09
405.08	231.41
405.46	231.65
405.83	231.92
406.21	232.21
406.58	232.53
406.96	232.86
407.33	233.23
407.70	233.66
408.08	234.23
408.45	234.73
408.83	235.27
409.20	235.76
409.58	236.21
409.95	236.84
410.33	237.52
410.70	238.16
411.08	238.92
411.45	239.73
411.82	240.55
412.20	241.47
412.57	242.57
412.95	243.45
413.32	244.60
413.69	245.78
414.07	247.04
414.44	248.40
414.82	249.80
415.19	251.45
415.56	253.12
415.94	254.87
416.31	256.83
416.68	258.80
417.06	261.08
417.43	263.20
417.81	265.64
418.18	268.14
418.55	270.88
418.93	273.73
419.30	276.70
419.67	279.86
420.04	283.11
420.42	286.51
420.79	290.42
421.16	294.37
421.54	298.37
421.91	302.57
422.28	306.92
422.66	311.61
423.03	316.06
423.40	320.73
423.77	325.73
424.15	330.85
424.52	336.15
424.89	341.89
425.26	347.60
425.64	352.90
426.01	358.85
426.38	364.91
426.75	371.16
427.13	377.55
427.50	384.25
427.87	391.20
428.24	398.20
428.61	404.93
428.99	412.15
429.36	420.12
429.73	427.69
430.10	435.27
430.47	443.02
430.85	451.05
431.22	459.59
431.59	468.32
431.96	476.85
432.33	486.35
432.70	495.40
433.08	506.08
433.45	516.17
433.82	526.13
434.19	537.30
434.56	548.27
434.93	558.96
435.30	569.54
435.68	581.53
436.05	593.25
436.42	604.99
436.79	615.73
437.16	627.41
437.53	639.87
437.90	652.32
438.27	664.56
438.64	677.79
439.01	689.79
439.38	700.83
439.75	711.49
440.13	723.67
440.50	735.22
440.87	744.46
441.24	754.61
441.61	765.72
441.98	773.93
442.35	783.73
442.72	793.66
443.09	803.07
443.46	809.25
443.83	813.95
444.20	817.81
444.57	823.44
444.94	826.74
445.31	830.21
445.68	833.17
446.05	835.39
446.42	835.05
446.79	834.49
447.16	834.05
447.53	833.70
447.90	830.09
448.27	826.66
448.64	821.27
449.01	817.53
449.37	809.84
449.74	802.86
450.11	793.80
450.48	783.83
450.85	773.89
451.22	765.30
451.59	756.86
451.96	749.24
452.33	738.17
452.70	728.34
453.07	716.41
453.43	704.55
453.80	692.95
454.17	681.85
454.54	671.60
454.91	660.04
455.28	649.08
455.65	638.75
456.02	627.83
456.38	619.04
456.75	607.83
457.12	598.78
457.49	589.64
457.86	580.99
458.23	573.38
458.59	565.00
458.96	556.39
459.33	548.84
459.70	541.15
460.07	535.29
460.43	528.37
460.80	521.91
461.17	516.26
461.54	510.19
461.91	504.50
462.27	498.70
462.64	493.96
463.01	488.56
463.38	483.11
463.74	478.22
464.11	473.87
464.48	469.92
464.85	465.65
465.21	462.40
465.58	458.78
465.95	454.68
466.32	451.41
466.68	448.21
467.05	444.95
467.42	441.81
467.78	438.44
468.15	435.35
468.52	433.06
468.88	430.06
469.25	427.31
469.62	425.13
469.98	422.78
470.35	420.67
470.72	418.76
471.08	416.84
471.45	415.21
471.82	413.39
472.18	411.50
472.55	410.28
472.92	408.74
473.28	407.56
473.65	406.26
474.02	405.04
474.38	404.01
474.75	403.42
475.11	402.59
475.48	402.19
475.85	401.77
476.21	401.51
476.58	401.33
476.94	401.52
477.31	401.56
477.67	401.64
478.04	401.94
478.41	402.38
478.77	402.99
479.14	403.38
479.50	404.17
479.87	405.19
480.23	406.17
480.60	407.10
480.96	408.05
481.33	409.52
481.69	410.96
482.06	412.38
482.42	413.66
482.79	415.29
483.15	417.17
483.52	419.29
483.88	421.32
484.25	423.47
484.61	425.74
484.98	428.18
485.34	430.92
485.71	433.79
486.07	436.86
486.44	439.88
486.80	443.28
487.17	446.77
487.53	450.54
487.90	454.50
488.26	458.85
488.62	463.38
488.99	467.89
489.35	472.64
489.72	477.72
490.08	483.10
490.44	488.57
490.81	494.31
491.17	500.20
491.54	506.54
491.90	512.99
492.26	519.86
492.63	527.09
492.99	534.63
493.36	542.31
493.72	550.37
494.08	558.65
494.45	567.33
494.81	576.39
495.17	585.70
495.54	595.48
495.90	605.68
496.26	616.10
496.63	626.83
496.99	637.94
497.35	649.58
497.72	661.47
498.08	673.71
498.44	686.25
498.80	699.47
499.17	712.96
499.53	726.92
499.89	741.29
500.26	755.88
500.62	770.82
500.98	786.56
501.34	802.37
501.71	818.96
502.07	835.81
502.43	853.10
502.79	870.59
503.16	888.62
503.52	906.81
503.88	925.45
504.24	944.49
504.60	963.74
504.97	983.59
505.33	1003.92
505.69	1025.27
506.05	1046.76
506.41	1068.18
506.78	1089.73
507.14	1111.86
507.50	1134.42
507.86	1157.31
508.22	1180.42
508.59	1203.37
508.95	1227.32
509.31	1251.73
509.67	1276.73
510.03	1301.68
510.39	1326.49
510.75	1351.38
511.12	1376.59
511.48	1401.90
511.84	1427.17
512.20	1452.78
512.56	1479.38
512.92	1505.80
513.28	1531.54
513.64	1557.72
514.00	1584.19
514.37	1610.87
514.73	1637.56
515.09	1663.60
515.45	1689.85
515.81	1716.26
516.17	1742.39
516.53	1767.82
516.89	1793.07
517.25	1818.58
517.61	1843.83
517.97	1869.74
518.33	1894.93
518.69	1920.03
519.05	1945.48
519.41	1971.07
519.77	1996.57
520.13	2020.59
520.49	2044.66
520.85	2069.05
521.21	2092.82
521.57	2116.88
521.93	2139.94
522.29	2163.53
522.65	2186.86
523.01	2209.99
523.37	2232.35
523.73	2255.38
524.09	2278.14
524.45	2300.52
524.81	2322.19
525.17	2343.62
525.53	2364.37
525.89	2385.45
526.25	2406.08
526.61	2425.20
526.97	2444.26
527.33	2463.18
527.68	2481.79
528.04	2500.00
528.40	2516.88
528.76	2534.01
529.12	2550.64
529.48	2567.85
529.84	2582.37
530.20	2597.30
530.56	2611.32
530.91	2625.49
531.27	2639.11
531.63	2651.73
531.99	2664.08
532.35	2676.13
532.71	2687.79
533.07	2699.70
533.42	2709.82
533.78	2720.11
534.14	2731.27
534.50	2741.36
534.86	2751.99
535.21	2760.57
535.57	2768.83
535.93	2777.08
536.29	2783.54
536.65	2789.83
537.00	2794.63
537.36	2800.71
537.72	2805.86
538.08	2810.47
538.44	2814.00
538.79	2817.29
539.15	2819.33
539.51	2820.73
539.87	2820.94
540.22	2819.58
540.58	2818.43
540.94	2818.10
541.29	2816.68
541.65	2813.92
542.01	2810.82
542.37	2806.10
542.72	2802.91
543.08	2798.22
543.44	2793.71
543.79	2788.75
544.15	2783.04
544.51	2777.58
544.87	2771.13
545.22	2763.80
545.58	2756.37
545.94	2749.16
546.29	2740.51
546.65	2732.09
547.01	2723.78
547.36	2715.88
547.72	2708.17
548.07	2698.86
548.43	2688.41
548.79	2677.84
549.14	2667.53
549.50	2657.37
549.86	2646.31
550.21	2633.74
550.57	2622.31
550.92	2609.12
551.28	2596.43
551.64	2584.03
551.99	2571.35
552.35	2558.32
552.70	2545.15
553.06	2532.47
553.41	2519.40
553.77	2506.03
554.13	2492.81
554.48	2478.47
554.84	2463.42
555.19	2448.95
555.55	2434.35
555.90	2420.26
556.26	2406.39
556.61	2391.54
556.97	2375.70
557.32	2360.39
557.68	2345.39
558.03	2330.05
558.39	2315.66
558.74	2301.92
559.10	2286.36
559.45	2271.10
559.81	2256.47
560.16	2241.58
560.52	2226.48
560.87	2211.50
561.23	2196.24
561.58	2181.45
561.94	2166.34
562.29	2150.77
562.64	2135.38
563.00	2120.14
563.35	2105.07
563.71	2089.67
564.06	2074.42
564.42	2059.74
564.77	2045.04
565.12	2030.11
565.48	2015.04
565.83	2000.20
566.19	1985.30
566.54	1970.78
566.89	1955.67
567.25	1940.46
567.60	1926.06
567.96	1910.94
568.31	1894.73
568.66	1879.47
569.02	1864.67
569.37	1850.47
569.72	1836.85
570.08	1822.69
570.43	1808.02
570.78	1793.25
571.14	1778.32
571.49	1763.51
571.84	1748.91
572.20	1733.31
572.55	1718.48
572.90	1703.67
573.26	1688.87
573.61	1673.48
573.96	1658.55
574.31	1643.59
574.67	1628.50
575.02	1613.11
575.37	1597.79
575.72	1583.18
576.08	1568.41
576.43	1553.03
576.78	1537.78
577.13	1522.78
577.49	1508.06
577.84	1493.80
578.19	1479.04
578.54	1464.34
578.90	1449.56
579.25	1434.70
579.60	1420.94
579.95	1406.90
580.30	1392.89
580.66	1378.65
581.01	1364.47
581.36	1350.45
581.71	1337.13
582.06	1323.83
582.42	1310.39
582.77	1297.40
583.12	1284.60
583.47	1271.72
583.82	1259.07
584.17	1246.04
584.53	1233.07
584.88	1220.39
585.23	1207.55
585.58	1195.07
585.93	1182.55
586.28	1170.97
586.63	1159.24
586.98	1147.16
587.34	1135.50
587.69	1123.59
588.04	1112.07
588.39	1100.80
588.74	1089.15
589.09	1077.66
589.44	1065.89
589.79	1054.68
590.14	1043.51
590.49	1032.45
590.84	1021.65
591.19	1011.06
591.54	1000.56
591.89	989.74
592.25	979.24
592.60	968.64
592.95	958.23
593.30	948.09
593.65	937.69
594.00	927.58
594.35	918.30
594.70	908.36
595.05	899.05
595.40	889.52
595.75	879.89
596.10	870.83
596.45	861.74
596.80	853.03
597.15	844.27
597.50	835.55
597.85	827.07
598.19	818.51
598.54	810.00
598.89	801.97
599.24	794.29
599.59	786.44
599.94	779.16
600.29	771.90
600.64	764.55
600.99	757.07
601.34	749.83
601.69	742.10
602.04	735.22
602.39	728.21
602.74	721.39
603.08	714.71
603.43	708.01
603.78	701.30
604.13	694.67
604.48	688.12
604.83	681.77
605.18	675.44
605.53	669.30
605.87	663.12
606.22	657.04
606.57	650.90
606.92	644.68
607.27	638.50
607.62	632.50
607.96	626.74
608.31	621.39
608.66	615.97
609.01	610.78
609.36	605.56
609.70	600.32
610.05	595.09
610.40	590.04
610.75	584.99
611.10	580.12
611.44	575.25
611.79	570.48
612.14	565.65
612.49	560.90
612.83	556.38
613.18	551.96
613.53	547.49
613.88	543.15
614.22	539.16
614.57	535.08
614.92	531.09
615.27	527.22
615.61	523.26
615.96	519.30
616.31	515.37
616.65	511.58
617.00	507.90
617.35	504.25
617.70	500.62
618.04	497.09
618.39	493.65
618.74	490.44
619.08	487.21
619.43	484.07
619.78	480.89
620.12	477.70
620.47	474.68
620.82	471.75
621.16	468.82
621.51	465.93
621.85	463.08
622.20	460.30
622.55	457.47
622.89	454.69
623.24	452.10
623.59	449.54
623.93	447.05
624.28	444.69
624.62	442.55
624.97	440.40
625.32	438.16
625.66	435.88
626.01	433.56
626.35	431.39
626.70	429.15
627.04	427.08
627.39	424.99
627.73	422.98
628.08	421.02
628.43	419.08
628.77	417.05
629.12	415.14
629.46	413.30
629.81	411.61
630.15	409.83
630.50	408.06
630.84	406.34
631.19	404.66
631.53	403.03
631.88	401.23
632.22	399.52
632.57	398.08
632.91	396.62
633.26	395.22
633.60	393.83
633.95	392.52
634.29	391.10
634.64	389.74
634.98	388.23
635.32	386.89
635.67	385.70
636.01	384.49
636.36	383.32
636.70	382.23
637.05	380.99
637.39	379.89
637.73	378.78
638.08	377.75
638.42	376.72
638.77	375.60
639.11	374.42
639.45	373.28
639.80	372.09
640.14	370.99
640.49	369.87
640.83	368.75
641.17	367.67
641.52	366.63
641.86	365.61
642.20	364.75
642.55	363.71
642.89	362.67
643.23	361.72
643.58	360.86
643.92	359.84
644.26	358.91
644.61	358.01
644.95	357.09
645.29	356.10
645.64	355.10
645.98	354.18
646.32	353.38
646.66	352.53
647.01	351.71
647.35	350.95
647.69	350.15
648.04	349.42
648.38	348.65
648.72	347.90
649.06	347.14
649.41	346.34
649.75	345.60
650.09	344.90
650.43	344.15
650.78	343.37
651.12	342.65
651.46	341.93
651.80	341.23
652.14	340.55
652.49	339.94
652.83	339.24
653.17	338.54
653.51	337.86
653.85	337.29
654.20	336.65
654.54	335.91
654.88	335.22
655.22	334.60
655.56	333.92
655.90	333.27
656.25	332.65
656.59	332.02
656.93	331.44
657.27	330.91
657.61	330.29
657.95	329.72
658.29	329.14
658.64	328.58
658.98	327.96
659.32	327.37
659.66	326.80
660.00	326.30
660.34	325.78
660.68	325.20
661.02	324.56
661.36	323.96
661.70	323.41
662.05	322.88
662.39	322.35
662.73	321.90
663.07	321.50
663.41	321.03
663.75	320.53
664.09	320.02
664.43	319.39
664.77	318.88
665.11	318.30
665.45	317.79
665.79	317.30
666.13	316.79
666.47	316.26
666.81	315.69
667.15	315.08
667.49	314.61
667.83	314.19
668.17	313.74
668.51	313.33
668.85	312.94
669.19	312.58
669.53	312.06
669.87	311.51
670.21	310.96
670.55	310.45
670.89	310.04
671.23	309.60
671.57	309.21
671.91	308.86
672.25	308.51
672.58	308.17
672.92	307.72
673.26	307.37
673.60	307.01
673.94	306.64
674.28	306.31
674.62	305.93
674.96	305.48
675.30	305.09
675.64	304.65
675.97	304.19
676.31	303.71
676.65	303.29
676.99	302.97
677.33	302.55
677.67	302.16
678.01	301.69
678.34	301.27
678.68	300.88
679.02	300.42
679.36	300.00
679.70	299.54
680.04	299.14
680.37	298.72
680.71	298.33
681.05	297.97
681.39	297.54
681.73	297.08
682.06	296.67
682.40	296.28
682.74	295.93
683.08	295.63
683.42	295.26
683.75	294.92
684.09	294.45
684.43	294.06
684.77	293.64
685.10	293.26
685.44	292.87
685.78	292.45
686.12	292.05
686.45	291.63
686.79	291.20
687.13	290.80
687.46	290.36
687.80	289.95
688.14	289.48
688.48	289.07
688.81	288.65
689.15	288.31
689.49	287.86
689.82	287.42
690.16	286.89
690.50	286.44
690.83	286.00
691.17	285.55
691.51	285.13
691.84	284.75
692.18	284.34
692.52	283.88
692.85	283.46
693.19	283.11
693.52	282.68
693.86	282.27
694.20	281.85
694.53	281.45
694.87	280.99
695.21	280.56
695.54	280.15
695.88	279.72
696.21	279.23
696.55	278.80
696.88	278.38
697.22	277.97
697.56	277.58
697.89	277.13
698.23	276.73
698.56	276.29
698.90	275.89
699.23	275.44
699.57	275.06
699.90	274.65
700.24	274.20
700.58	273.81
700.91	273.47
701.25	273.24
701.58	272.93
701.92	272.61
702.25	272.25
702.59	271.85
702.92	271.48
703.26	271.11
703.59	270.73
703.93	270.48
704.26	270.10
704.60	269.72
704.93	269.36
705.26	268.98
705.60	268.66
705.93	268.24
706.27	267.95
706.60	267.61
706.94	267.32
707.27	266.93
707.61	266.56
707.94	266.16
708.27	265.63
708.61	265.20
708.94	264.80
709.28	264.45
709.61	264.09
709.94	263.77
710.28	263.44
710.61	263.14
710.95	262.66
711.28	262.46
711.61	262.12
711.95	261.83
712.28	261.50
712.61	261.15
712.95	260.93
713.28	260.67
713.61	260.32
713.95	259.95
714.28	259.67
714.61	259.35
714.95	259.04
715.28	258.74
715.61	258.46
715.95	258.19
716.28	257.88
716.61	257.63
716.95	257.33
717.28	257.04
717.61	256.74
717.94	256.47
718.28	256.08
718.61	255.80
718.94	255.50
719.27	255.24
719.61	254.99
719.94	254.69
720.27	254.34
720.60	254.09
720.94	253.85
721.27	253.60
721.60	253.38
721.93	253.12
722.27	252.92
722.60	252.67
722.93	252.40
723.26	252.17
723.59	251.90
723.93	251.69
724.26	251.50
724.59	251.26
724.92	251.05
725.25	250.89
725.59	250.68
725.92	250.49
726.25	250.28
726.58	250.06
726.91	249.84
727.24	249.65
727.57	249.43
727.91	249.19
728.24	249.00
728.57	248.79
728.90	248.62
729.23	248.36
729.56	248.25
729.89	248.07
730.22	247.88
730.55	247.69
730.89	247.49
731.22	247.27
731.55	247.09
731.88	246.91
732.21	246.68
732.54	246.48
732.87	246.29
733.20	246.13
733.53	245.96
733.86	245.80
734.19	245.60
734.52	245.47
734.85	245.43
735.18	245.24
735.51	245.12
735.84	244.95
736.17	244.85
736.50	244.60
736.83	244.64
737.16	244.49
737.49	244.33
737.82	244.17
738.15	244.04
738.48	243.88
738.81	243.70
739.14	243.53
739.47	243.36
739.80	243.21
740.13	243.06
740.46	242.88
740.79	242.69
741.12	242.52
741.45	242.34
741.78	242.09
742.11	241.99
742.44	241.80
742.77	241.66
743.10	241.48
743.43	241.33
743.75	240.99
744.08	241.13
744.41	240.98
744.74	240.83
745.07	240.65
745.40	240.55
745.73	240.50
746.06	240.38
746.39	240.28
746.71	240.15
747.04	240.00
747.37	239.87
747.70	239.78
748.03	239.68
748.36	239.59
748.68	239.47
749.01	239.30
749.34	239.18
749.67	239.06
750.00	238.98
750.33	238.99
750.65	238.89
750.98	238.51
751.31	238.40
751.64	238.32
751.97	238.31
752.29	238.19
752.62	238.00
752.95	237.88
753.28	237.75
753.60	237.62
753.93	237.55
754.26	237.47
754.59	237.30
754.91	237.18
755.24	237.05
755.57	236.95
755.90	236.84
756.22	236.72
756.55	236.59
756.88	236.44
757.20	236.23
757.53	236.07
757.86	235.97
758.19	235.88
758.51	235.78
758.84	235.59
759.17	235.47
759.49	235.38
759.82	235.38
760.15	235.31
760.47	235.23
760.80	235.10
761.13	235.04
761.45	234.96
761.78	234.88
762.11	234.81
762.43	234.71
762.76	234.63
763.08	234.58
763.41	234.52
763.74	234.46
764.06	234.38
764.39	234.32
764.71	234.25
765.04	234.15
765.37	234.06
765.69	233.98
766.02	233.92
766.34	233.84
766.67	233.70
767.00	233.67
767.32	233.70
767.65	233.74
767.97	233.66
768.30	233.60
768.62	233.54
768.95	233.46
769.27	233.40
769.60	233.36
769.92	233.27
770.25	233.19
770.57	233.10
770.90	233.04
771.22	232.97
771.55	232.93
771.87	232.88
772.20	232.82
772.52	232.91
772.85	233.09
773.17	233.04
773.50	232.98
773.82	232.88
774.15	232.74
774.47	232.58
774.80	232.50
775.12	232.46
775.45	232.39
775.77	232.36
776.09	232.33
776.42	232.28
776.74	232.29
777.07	232.23
777.39	232.20
777.72	232.14
778.04	232.13
778.36	232.06
778.69	232.04
779.01	232.01
779.33	231.82
779.66	231.58
779.98	231.53
780.31	231.51
780.63	231.55
780.95	231.56
781.28	231.53
781.60	231.48
781.92	231.44
782.25	231.42
782.57	231.38
782.89	231.32
783.22	231.29
783.54	231.21
783.86	231.20
784.19	231.16
784.51	231.21
784.83	231.14
785.16	231.12
785.48	231.08
785.80	231.05
786.12	231.03
786.45	231.00
786.77	230.98
787.09	230.94
787.42	230.84
787.74	230.81
788.06	230.78
788.38	230.76
788.71	230.72
789.03	230.70
789.35	230.70
789.67	230.65
789.99	230.63
790.32	230.58
790.64	230.58
790.96	230.71
791.28	230.62
791.61	230.59
791.93	230.58
792.25	230.55
792.57	230.64
792.89	230.60
793.21	230.58
793.54	230.53
793.86	230.49
794.18	230.47
794.50	230.42
794.82	230.40
795.14	230.40
795.47	230.41
795.79	230.39
796.11	230.33
796.43	230.31
796.75	230.29
797.07	230.28
797.39	230.25
797.71	230.07
798.04	230.06
798.36	230.05
798.68	230.01
799.00	230.01
799.32	229.89
799.64	229.89
799.96	229.87
800.28	229.88
800.60	229.87
800.92	229.86
801.24	229.84
801.56	229.83
801.89	229.79
802.21	229.77
802.53	229.72
802.85	229.74
803.17	229.80
803.49	229.75
803.81	229.72
804.13	229.69
804.45	229.65
804.77	229.64
805.09	229.62
805.41	229.59
805.73	229.54
806.05	229.47
806.37	229.45
806.69	229.41
807.01	229.38
807.33	229.37
807.65	229.30
807.97	229.36
808.28	229.32
808.60	229.31
808.92	229.27
809.24	229.37
809.56	229.33
809.88	229.25
810.20	229.24
810.52	229.26
810.84	229.23
811.16	229.21
811.48	229.19
811.80	229.24
812.12	229.23
812.43	229.25
812.75	229.26
813.07	229.23
813.39	229.23
813.71	229.19
814.03	229.15
814.35	229.15
814.67	229.07
814.98	229.03
815.30	229.01
815.62	228.97
815.94	228.85
816.26	228.85
816.58	228.82
816.89	228.82
817.21	228.75
817.53	228.75
817.85	228.74
818.17	228.73
818.48	228.64
818.80	228.66
819.12	228.62
819.44	228.58
819.76	228.55
820.07	228.54
820.39	228.53
820.71	228.54
821.03	228.53
821.34	228.51
821.66	228.53
821.98	228.52
822.30	228.51
822.61	228.61
822.93	228.57
823.25	228.54
823.57	228.52
823.88	228.53
824.20	228.50
824.52	228.52
824.83	228.50
825.15	228.47
825.47	228.45
825.79	228.47
826.10	228.44
826.42	228.44
826.74	228.45
827.05	228.44
827.37	228.44
827.69	228.42
828.00	228.43
828.32	228.42
828.64	228.39
828.95	228.48
829.27	228.43
829.58	228.41
829.90	228.44
830.22	228.44
830.53	228.41
830.85	228.41
831.17	228.34
831.48	228.34
831.80	228.34
832.11	228.32
832.43	228.28
832.75	228.28
833.06	228.39
833.38	228.34
833.69	228.32
834.01	228.32
834.32	228.32
834.64	228.30
834.96	228.30
835.27	228.30
835.59	228.23
835.90	228.20
836.22	228.20
836.53	228.17
836.85	228.16
837.16	228.33
837.48	228.32
837.79	228.39
838.11	228.39
838.42	228.39
838.74	228.41
839.05	228.39
839.37	228.38
839.68	228.26
840.00	228.25
840.31	228.29
840.63	228.27
840.94	228.24
841.26	228.22
841.57	228.20
841.88	228.20
842.20	228.17
842.51	228.15
842.83	228.14
843.14	228.29
843.46	228.29
843.77	228.19
844.08	228.17
844.40	228.11
844.71	228.10
845.03	228.08
845.34	228.05
845.65	228.05
845.97	228.05
846.28	228.05
846.60	228.06
846.91	228.02
847.22	228.00
847.54	228.03
847.85	228.04
848.16	228.02
848.48	227.98
848.79	228.06
849.10	228.07
849.42	228.08
849.73	227.91
850.04	227.89
850.36	227.83
850.67	227.87
850.98	227.87
851.30	227.88
851.61	227.88
851.92	227.87
852.23	227.93
852.55	227.93
852.86	227.93
853.17	227.94
853.49	227.97
853.80	228.01
854.11	228.02
854.42	228.05
854.74	228.04
855.05	228.05
855.36	227.95
855.67	227.93
855.99	227.93
856.30	228.14
856.61	228.14
856.92	228.15
857.23	228.14
857.55	228.12
857.86	228.10
858.17	228.12
858.48	228.09
858.79	228.04
859.11	228.06
859.42	228.04
859.73	228.01
860.04	228.01
860.35	227.95
860.66	227.89
860.98	227.86
861.29	227.88
861.60	227.87
861.91	227.91
862.22	227.89
862.53	227.86
862.84	227.66
863.16	227.69
863.47	227.65
863.78	227.62
864.09	227.63
864.40	227.64
864.71	227.64
865.02	227.68
865.33	227.65
865.64	227.62
865.95	227.62
866.27	227.73
866.58	227.70
866.89	227.73
867.20	227.74
867.51	227.70
867.82	227.70
868.13	227.75
868.44	227.70
868.75	227.74
869.06	227.75
869.37	227.76
869.68	227.70
869.99	227.73
870.30	227.75
870.61	227.77
870.92	227.75
871.23	227.74
871.54	227.76
871.85	227.80
872.16	227.83
872.47	227.81
872.78	227.71
873.09	227.74
873.40	227.70
873.71	227.72
874.02	227.76
874.33	227.74
874.64	227.68
874.95	227.73
875.26	227.68
875.56	227.67
875.87	227.66
876.18	227.67
876.49	227.85
876.80	227.82
877.11	227.78
877.42	227.78
877.73	227.78
878.04	227.75
878.35	227.74
878.66	227.73
878.96	227.73
879.27	227.73
879.58	227.71
879.89	227.70
880.20	227.75
880.51	227.74
880.82	227.75
881.12	227.76
881.43	227.72
881.74	227.70
882.05	227.69
882.36	227.69
882.67	227.71
882.97	227.52
883.28	227.50
883.59	227.50
883.90	227.52
884.21	227.55
884.51	227.55
884.82	227.52
885.13	227.53
885.44	227.52
885.74	227.52
886.05	227.50
886.36	227.51
886.67	227.43
886.98	227.52
887.28	227.54
887.59	227.53
887.90	227.54
888.20	227.53
888.51	227.58
888.82	227.56
889.13	227.57
889.43	227.72
889.74	227.71
890.05	227.72
890.35	227.69
890.66	227.65
890.97	227.63
891.28	227.61
891.58	227.61
891.89	227.62
892.20	227.60
892.50	227.60
892.81	227.59
893.12	227.59
893.42	227.49
893.73	227.50
894.04	227.50
894.34	227.52
894.65	227.52
894.95	227.49
895.26	227.50
895.57	227.57
895.87	227.38
896.18	227.43
896.48	227.44
896.79	227.44
897.10	227.47
897.40	227.48
897.71	227.51
898.01	227.49
898.32	227.50
898.63	227.50
898.93	227.51
899.24	227.51
899.54	227.50
899.85	227.50
900.15	227.48
900.46	227.47
900.76	227.47
901.07	227.48
901.38	227.47
901.68	227.49
901.99	227.39
902.29	227.42
902.60	227.39
902.90	227.36
903.21	227.35
903.51	227.34
903.82	227.37
904.12	227.38
904.43	227.39
904.73	227.37
905.03	227.39
905.34	227.56
905.64	227.55
905.95	227.56
906.25	227.55
906.56	227.56
906.86	227.57
907.17	227.55
907.47	227.56
907.77	227.53
908.08	227.50
908.38	227.51
908.69	227.51
908.99	227.55
909.30	227.57
909.60	227.57
909.90	227.55
910.21	227.51
910.51	227.47
910.81	227.49
911.12	227.51
911.42	227.51
911.73	227.32
912.03	227.33
912.33	227.37
912.64	227.36
912.94	227.34
913.24	227.30
913.55	227.29
913.85	227.27
914.15	227.32
914.46	227.33
914.76	227.32
915.06	227.31
915.37	227.27
915.67	227.26
915.97	227.25
916.27	227.24
916.58	227.24
916.88	227.24
917.18	227.22
917.49	227.32
917.79	227.32
918.09	227.35
918.39	227.40
918.70	227.39
919.00	227.39
919.30	227.49
919.60	227.49
919.91	227.48
920.21	227.49
920.51	227.45
920.81	227.44
921.12	227.46
921.42	227.45
921.72	227.46
922.02	227.47
922.32	227.50
922.63	227.50
922.93	227.61
923.23	227.62
923.53	227.60
923.83	227.48
924.13	227.49
924.44	227.47
924.74	227.49
925.04	227.52
925.34	227.52
925.64	227.43
925.94	227.43
926.24	227.52
926.55	227.52
926.85	227.54
927.15	227.54
927.45	227.55
927.75	227.55
928.05	227.56
928.35	227.55
928.65	227.57
928.95	227.58
929.26	227.48
929.56	227.52
929.86	227.56
930.16	227.54
930.46	227.54
930.76	227.54
931.06	227.45
931.36	227.39
931.66	227.42
931.96	227.45
932.26	227.47
932.56	227.38
932.86	227.39
933.16	227.38
933.46	227.36
933.76	227.34
934.06	227.36
934.36	227.42
934.66	227.41
934.96	227.38
935.26	227.39
935.56	227.42
935.86	227.37
936.16	227.34
936.46	227.32
936.76	227.31
937.06	227.29
937.36	227.30
937.66	227.31
937.96	227.29
938.26	227.25
938.56	227.23
938.86	227.25
939.16	227.28
939.46	227.30
939.76	227.30
940.06	227.31
940.35	227.27
940.65	227.18
940.95	227.20
941.25	227.16
941.55	227.14
941.85	227.13
942.15	227.16
942.45	227.21
942.75	227.21
943.04	227.21
943.34	227.25
943.64	227.25
943.94	227.23
944.24	227.23
944.54	227.24
944.84	227.23
945.13	227.21
945.43	227.18
945.73	227.17
946.03	227.16
946.33	227.14
946.62	227.13
946.92	227.13
947.22	227.14
947.52	227.15
947.82	227.17
948.11	227.15
948.41	227.10
948.71	227.05
949.01	227.07
949.31	227.05
949.60	227.03
949.90	227.06
950.20	227.06
950.50	227.06
950.79	227.04
951.09	227.08
951.39	227.07
951.69	227.05
951.98	227.09
952.28	227.10
952.58	227.10
952.87	227.10
953.17	227.13
953.47	227.10
953.76	227.10
954.06	227.06
954.36	227.03
954.66	227.04
954.95	227.08
955.25	227.09
955.55	227.11
955.84	227.08
956.14	227.09
956.44	227.11
956.73	227.08
957.03	227.10
957.32	227.09
957.62	227.09
957.92	227.12
958.21	227.09
958.51	227.30
958.81	227.33
959.10	227.35
959.40	227.40
959.69	227.42
959.99	227.45
960.29	227.45
960.58	227.46
960.88	227.53
961.17	227.52
961.47	227.53
961.76	227.52
962.06	227.56
962.36	227.53
962.65	227.54
962.95	227.55
963.24	227.53
963.54	227.54
963.83	227.55
964.13	227.55
964.42	227.54
964.72	227.39
965.01	227.39
965.31	227.37
965.60	227.31
965.90	227.42
966.19	227.38
966.49	227.40
966.78	227.39
967.08	227.37
967.37	227.37
967.67	227.33
967.96	227.36
968.26	227.34
968.55	227.38
968.85	227.37
969.14	227.37
969.43	227.37
969.73	227.35
970.02	227.34
970.32	227.32
970.61	227.29
970.91	227.24
971.20	227.21
971.49	227.20
971.79	227.21
972.08	227.08
972.38	227.10
972.67	227.09
972.96	227.13
973.26	227.09
973.55	227.14
973.85	227.14
974.14	227.12
974.43	227.13
974.73	227.08
975.02	227.06
975.31	227.06
975.61	227.06
975.90	227.05
976.19	227.04
976.49	227.05
976.78	227.06
977.07	227.06
977.37	227.07
977.66	227.08
977.95	227.06
978.24	227.09
978.54	227.12
978.83	227.11
979.12	227.10
979.42	227.10
979.71	227.05
980.00	227.06
980.29	227.08
980.59	227.05
980.88	227.10
981.17	227.10
981.46	227.10
981.76	227.09
982.05	227.15
982.34	227.17
982.63	227.16
982.93	227.17
983.22	227.21
983.51	227.22
983.80	227.24
984.09	227.26
984.39	227.25
984.68	227.22
984.97	227.23
985.26	227.22
985.55	227.24
985.85	227.22
986.14	227.24
986.43	227.25
986.72	227.25
987.01	227.20
987.30	227.20
987.59	227.18
987.89	227.20
988.18	227.14
988.47	227.12
988.76	227.10
989.05	227.09
989.34	227.06
989.63	227.10
989.92	227.07
990.22	227.05
990.51	227.04
990.80	227.03
991.09	227.04
991.38	227.06
991.67	227.04
991.96	227.02
992.25	227.01
992.54	226.98
992.83	226.98
993.12	226.98
993.41	227.01
993.70	227.09
993.99	227.12
994.28	227.15
994.58	227.18
994.87	227.17
995.16	227.17
995.45	227.16
995.74	227.10
996.03	227.14
996.32	227.16
996.61	227.20
996.90	227.20
997.19	227.18
997.48	227.19
997.77	227.17
998.06	227.19
998.34	227.18
998.63	227.18
998.92	227.19
999.21	227.22
999.50	227.22
999.79	227.16
1000.08	227.16
1000.37	227.16
1000.66	227.13
1000.95	227.18
1001.24	227.19
1001.53	227.22
1001.82	227.22
1002.11	227.16
1002.40	227.17
1002.68	227.20
1002.97	227.33
1003.26	227.30
1003.55	227.26
1003.84	227.28
1004.13	227.33
1004.42	227.33
1004.71	227.33
1004.99	227.31
1005.28	227.36
1005.57	227.34
1005.86	227.32
1006.15	227.30
1006.44	227.27
1006.72	227.29
1007.01	227.26
1007.30	227.26
1007.59	227.24
1007.88	227.25
1008.17	227.27
1008.45	227.24
1008.74	227.18
1009.03	227.10
1009.32	227.11
1009.60	227.12
1009.89	227.10
1010.18	227.04
1010.47	227.02
1010.76	227.03
1011.04	227.02
1011.33	227.01
1011.62	227.02
1011.91	227.03
1012.19	227.04
1012.48	227.05
1012.77	227.05
1013.05	227.11
1013.34	227.11
1013.63	227.10
1013.92	227.11
1014.20	227.09
1014.49	227.09
1014.78	227.10
1015.06	227.04
1015.35	227.04
1015.64	227.06
1015.92	227.09
1016.21	227.10
1016.50	227.11
1016.78	227.12
1017.07	227.14
1017.36	227.10
1017.64	227.07
1017.93	227.09
1018.22	227.07
1018.50	227.07
1018.79	227.07
1019.08	227.00
1019.36	226.99
1019.65	226.99
1019.93	227.02
1020.22	227.06
1020.51	227.15
1020.79	227.13
1021.08	226.90
1021.36	226.77
1021.65	227.15
1021.94	226.92
1022.22	227.00
1022.51	226.82
1022.79	227.75
1023.08	227.31
1023.36	229.16
1023.65	226.59
>>>>>End Processed Spectral Data<<<<<
