SpectraSuite Data File
++++++++++++++++++++++++++++++++++++
Date: Tue Oct 06 15:13:09 EDT 2015
User: lab3
Dark Spectrum Present: No
Reference Spectrum Present: No
Number of Sampled Component Spectra: 1
Spectrometers: USB2E7196
Integration Time (usec): 66000 (USB2E7196)
Spectra Averaged: 400 (USB2E7196)
Boxcar Smoothing: 10 (USB2E7196)
Correct for Electrical Dark: No (USB2E7196)
Strobe/Lamp Enabled: No (USB2E7196)
Correct for Detector Non-linearity: No (USB2E7196)
Correct for Stray Light: No (USB2E7196)
Number of Pixels in Processed Spectrum: 2048
>>>>>Begin Processed Spectral Data<<<<<
339.09	0.00
339.48	214.97
339.86	216.43
340.24	217.61
340.63	219.18
341.01	223.36
341.39	221.73
341.78	223.45
342.16	224.48
342.54	225.13
342.93	213.43
343.31	224.21
343.69	224.76
344.07	225.21
344.46	225.66
344.84	226.07
345.22	226.25
345.60	226.54
345.99	226.72
346.37	226.86
346.75	226.96
347.13	227.04
347.52	227.14
347.90	227.24
348.28	227.30
348.66	227.39
349.05	227.37
349.43	227.45
349.81	227.51
350.19	227.60
350.57	227.68
350.96	227.78
351.34	227.90
351.72	227.99
352.10	228.11
352.48	228.18
352.87	228.23
353.25	228.31
353.63	228.35
354.01	228.43
354.39	228.51
354.77	228.60
355.15	228.74
355.54	228.77
355.92	228.79
356.30	228.86
356.68	229.06
357.06	229.14
357.44	229.17
357.82	229.25
358.20	229.46
358.58	229.50
358.97	229.55
359.35	229.64
359.73	229.76
360.11	229.82
360.49	229.89
360.87	229.94
361.25	230.01
361.63	230.13
362.01	230.20
362.39	230.23
362.77	230.29
363.15	230.30
363.53	230.34
363.91	230.41
364.29	230.44
364.67	230.28
365.05	230.31
365.43	230.35
365.81	230.38
366.19	230.34
366.57	230.44
366.95	230.46
367.33	230.42
367.71	230.43
368.09	230.46
368.47	230.45
368.85	230.46
369.23	230.48
369.61	230.42
369.99	230.47
370.37	230.47
370.75	230.59
371.13	230.57
371.51	230.52
371.89	230.50
372.27	230.47
372.65	230.44
373.03	230.40
373.41	230.36
373.78	230.33
374.16	230.19
374.54	230.09
374.92	230.03
375.30	229.99
375.68	229.88
376.06	229.84
376.44	229.79
376.82	229.74
377.19	229.70
377.57	229.63
377.95	229.51
378.33	229.45
378.71	229.24
379.09	229.20
379.47	229.18
379.84	229.11
380.22	229.05
380.60	229.00
380.98	228.96
381.36	228.91
381.73	228.83
382.11	228.83
382.49	228.78
382.87	228.72
383.25	228.66
383.62	228.83
384.00	228.75
384.38	228.71
384.76	228.69
385.13	228.68
385.51	228.66
385.89	228.60
386.27	228.57
386.64	228.57
387.02	228.49
387.40	228.45
387.78	228.42
388.15	228.40
388.53	228.36
388.91	228.32
389.29	228.29
389.66	228.28
390.04	228.20
390.42	228.21
390.79	228.20
391.17	228.20
391.55	227.98
391.92	227.99
392.30	228.00
392.68	227.97
393.05	227.96
393.43	227.97
393.81	227.98
394.18	227.97
394.56	227.97
394.94	228.04
395.31	228.03
395.69	228.09
396.06	228.12
396.44	228.17
396.82	228.20
397.19	228.31
397.57	228.35
397.95	228.43
398.32	228.43
398.70	228.50
399.07	228.60
399.45	228.67
399.82	228.73
400.20	228.77
400.58	228.85
400.95	228.88
401.33	229.00
401.70	229.24
402.08	229.37
402.45	229.50
402.83	229.65
403.20	229.83
403.58	229.97
403.95	230.20
404.33	230.42
404.71	230.62
405.08	230.93
405.46	231.19
405.83	231.48
406.21	231.78
406.58	232.12
406.96	232.43
407.33	232.81
407.70	233.23
408.08	233.82
408.45	234.34
408.83	234.89
409.20	235.39
409.58	235.85
409.95	236.48
410.33	237.16
410.70	237.83
411.08	238.57
411.45	239.38
411.82	240.19
412.20	241.13
412.57	242.24
412.95	243.14
413.32	244.27
413.69	245.45
414.07	246.73
414.44	248.08
414.82	249.49
415.19	251.13
415.56	252.80
415.94	254.54
416.31	256.50
416.68	258.45
417.06	260.72
417.43	262.84
417.81	265.28
418.18	267.79
418.55	270.51
418.93	273.36
419.30	276.33
419.67	279.47
420.04	282.72
420.42	286.12
420.79	290.03
421.16	293.96
421.54	297.94
421.91	302.12
422.28	306.46
422.66	311.13
423.03	315.58
423.40	320.25
423.77	325.24
424.15	330.36
424.52	335.67
424.89	341.41
425.26	347.11
425.64	352.42
426.01	358.35
426.38	364.40
426.75	370.65
427.13	377.02
427.50	383.72
427.87	390.61
428.24	397.58
428.61	404.27
428.99	411.46
429.36	419.38
429.73	426.94
430.10	434.50
430.47	442.22
430.85	450.20
431.22	458.74
431.59	467.50
431.96	475.98
432.33	485.41
432.70	494.40
433.08	505.07
433.45	515.09
433.82	524.99
434.19	536.11
434.56	547.03
434.93	557.63
435.30	568.14
435.68	580.11
436.05	591.79
436.42	603.48
436.79	614.20
437.16	625.79
437.53	638.21
437.90	650.64
438.27	662.84
438.64	675.98
439.01	687.88
439.38	698.81
439.75	709.45
440.13	721.58
440.50	733.10
440.87	742.32
441.24	752.44
441.61	763.49
441.98	771.66
442.35	781.39
442.72	791.30
443.09	800.71
443.46	806.85
443.83	811.60
444.20	815.50
444.57	821.15
444.94	824.54
445.31	827.97
445.68	830.93
446.05	833.20
446.42	832.95
446.79	832.47
447.16	832.07
447.53	831.70
447.90	828.14
448.27	824.73
448.64	819.34
449.01	815.66
449.37	808.09
449.74	801.19
450.11	792.26
450.48	782.41
450.85	772.56
451.22	764.10
451.59	755.69
451.96	748.14
452.33	737.17
452.70	727.41
453.07	715.59
453.43	703.81
453.80	692.28
454.17	681.25
454.54	671.05
454.91	659.54
455.28	648.68
455.65	638.46
456.02	627.61
456.38	618.91
456.75	607.76
457.12	598.71
457.49	589.63
457.86	580.99
458.23	573.41
458.59	565.06
458.96	556.47
459.33	548.92
459.70	541.22
460.07	535.32
460.43	528.38
460.80	521.92
461.17	516.29
461.54	510.22
461.91	504.52
462.27	498.73
462.64	494.01
463.01	488.62
463.38	483.17
463.74	478.29
464.11	473.94
464.48	469.99
464.85	465.74
465.21	462.44
465.58	458.83
465.95	454.72
466.32	451.44
466.68	448.21
467.05	444.98
467.42	441.82
467.78	438.45
468.15	435.37
468.52	433.11
468.88	430.06
469.25	427.32
469.62	425.14
469.98	422.77
470.35	420.64
470.72	418.71
471.08	416.77
471.45	415.12
471.82	413.28
472.18	411.37
472.55	410.16
472.92	408.63
473.28	407.44
473.65	406.13
474.02	404.90
474.38	403.86
474.75	403.25
475.11	402.44
475.48	402.03
475.85	401.61
476.21	401.33
476.58	401.17
476.94	401.33
477.31	401.36
477.67	401.44
478.04	401.74
478.41	402.19
478.77	402.78
479.14	403.15
479.50	403.93
479.87	404.92
480.23	405.90
480.60	406.85
480.96	407.81
481.33	409.28
481.69	410.69
482.06	412.10
482.42	413.38
482.79	414.98
483.15	416.85
483.52	418.96
483.88	420.98
484.25	423.14
484.61	425.40
484.98	427.84
485.34	430.59
485.71	433.44
486.07	436.47
486.44	439.53
486.80	442.97
487.17	446.48
487.53	450.27
487.90	454.21
488.26	458.50
488.62	463.03
488.99	467.53
489.35	472.28
489.72	477.38
490.08	482.77
490.44	488.25
490.81	493.99
491.17	499.86
491.54	506.13
491.90	512.57
492.26	519.41
492.63	526.60
492.99	534.14
493.36	541.84
493.72	549.90
494.08	558.11
494.45	566.73
494.81	575.75
495.17	585.02
495.54	594.82
495.90	605.04
496.26	615.40
496.63	626.07
496.99	637.12
497.35	648.71
497.72	660.56
498.08	672.79
498.44	685.29
498.80	698.54
499.17	712.09
499.53	726.05
499.89	740.43
500.26	754.94
500.62	769.82
500.98	785.54
501.34	801.32
501.71	817.93
502.07	834.69
502.43	851.94
502.79	869.39
503.16	887.36
503.52	905.47
503.88	924.10
504.24	943.13
504.60	962.39
504.97	982.19
505.33	1002.42
505.69	1023.70
506.05	1045.14
506.41	1066.43
506.78	1087.87
507.14	1109.93
507.50	1132.51
507.86	1155.47
508.22	1178.54
508.59	1201.38
508.95	1225.22
509.31	1249.48
509.67	1274.48
510.03	1299.38
510.39	1324.15
510.75	1349.02
511.12	1374.18
511.48	1399.48
511.84	1424.72
512.20	1450.12
512.56	1476.51
512.92	1502.83
513.28	1528.55
513.64	1554.61
514.00	1580.96
514.37	1607.59
514.73	1634.18
515.09	1659.95
515.45	1686.05
515.81	1712.24
516.17	1738.22
516.53	1763.50
516.89	1788.67
517.25	1814.03
517.61	1839.16
517.97	1864.88
518.33	1889.83
518.69	1914.79
519.05	1939.93
519.41	1965.18
519.77	1990.56
520.13	2014.50
520.49	2038.51
520.85	2062.78
521.21	2086.47
521.57	2110.47
521.93	2133.35
522.29	2156.97
522.65	2180.27
523.01	2203.27
523.37	2225.83
523.73	2248.91
524.09	2271.64
524.45	2293.96
524.81	2315.64
525.17	2337.01
525.53	2357.76
525.89	2379.00
526.25	2399.69
526.61	2419.00
526.97	2438.32
527.33	2457.34
527.68	2475.96
528.04	2494.03
528.40	2510.86
528.76	2527.99
529.12	2544.52
529.48	2561.70
529.84	2576.23
530.20	2591.32
530.56	2605.45
530.91	2619.60
531.27	2633.17
531.63	2646.00
531.99	2658.37
532.35	2670.35
532.71	2681.91
533.07	2693.73
533.42	2703.71
533.78	2713.95
534.14	2725.05
534.50	2735.00
534.86	2745.55
535.21	2754.06
535.57	2762.32
535.93	2770.63
536.29	2777.42
536.65	2783.97
537.00	2788.80
537.36	2794.68
537.72	2799.64
538.08	2804.13
538.44	2807.38
538.79	2810.64
539.15	2812.57
539.51	2814.18
539.87	2814.80
540.22	2813.59
540.58	2812.53
540.94	2812.26
541.29	2811.05
541.65	2808.26
542.01	2805.17
542.37	2800.53
542.72	2797.58
543.08	2793.13
543.44	2788.72
543.79	2783.48
544.15	2777.63
544.51	2772.36
544.87	2765.93
545.22	2758.65
545.58	2751.16
545.94	2744.21
546.29	2735.69
546.65	2727.35
547.01	2718.77
547.36	2710.57
547.72	2702.72
548.07	2693.34
548.43	2682.88
548.79	2671.96
549.14	2661.61
549.50	2651.54
549.86	2640.59
550.21	2627.96
550.57	2616.35
550.92	2603.02
551.28	2590.19
551.64	2577.80
551.99	2565.07
552.35	2552.14
552.70	2539.02
553.06	2526.49
553.41	2513.41
553.77	2499.87
554.13	2486.50
554.48	2472.33
554.84	2457.29
555.19	2443.15
555.55	2428.78
555.90	2414.60
556.26	2401.00
556.61	2386.24
556.97	2370.37
557.32	2354.88
557.68	2339.79
558.03	2324.43
558.39	2310.00
558.74	2296.15
559.10	2280.55
559.45	2265.22
559.81	2250.62
560.16	2235.80
560.52	2220.69
560.87	2205.71
561.23	2190.53
561.58	2175.77
561.94	2160.59
562.29	2145.14
562.64	2129.66
563.00	2114.43
563.35	2099.53
563.71	2084.09
564.06	2068.87
564.42	2054.06
564.77	2039.37
565.12	2024.59
565.48	2009.78
565.83	1995.10
566.19	1980.56
566.54	1966.25
566.89	1951.17
567.25	1935.80
567.60	1921.26
567.96	1906.15
568.31	1889.84
568.66	1874.42
569.02	1859.61
569.37	1845.28
569.72	1831.47
570.08	1817.26
570.43	1802.46
570.78	1787.57
571.14	1772.51
571.49	1757.54
571.84	1743.10
572.20	1727.61
572.55	1712.74
572.90	1697.81
573.26	1682.89
573.61	1667.18
573.96	1652.02
574.31	1637.06
574.67	1622.10
575.02	1606.83
575.37	1591.43
575.72	1576.83
576.08	1562.25
576.43	1546.97
576.78	1531.86
577.13	1516.89
577.49	1502.16
577.84	1487.90
578.19	1473.14
578.54	1458.47
578.90	1443.83
579.25	1429.04
579.60	1415.24
579.95	1401.24
580.30	1387.25
580.66	1373.05
581.01	1359.17
581.36	1345.29
581.71	1331.93
582.06	1318.57
582.42	1305.02
582.77	1292.08
583.12	1279.33
583.47	1266.36
583.82	1253.82
584.17	1240.84
584.53	1227.94
584.88	1215.29
585.23	1202.50
585.58	1190.12
585.93	1177.74
586.28	1166.20
586.63	1154.46
586.98	1142.55
587.34	1130.92
587.69	1119.02
588.04	1107.55
588.39	1096.33
588.74	1084.77
589.09	1073.43
589.44	1061.81
589.79	1050.73
590.14	1039.65
590.49	1028.69
590.84	1018.10
591.19	1007.47
591.54	997.02
591.89	986.26
592.25	975.82
592.60	965.30
592.95	954.96
593.30	944.84
593.65	934.48
594.00	924.45
594.35	915.23
594.70	905.44
595.05	896.27
595.40	886.88
595.75	877.32
596.10	868.31
596.45	859.25
596.80	850.57
597.15	841.93
597.50	833.31
597.85	824.92
598.19	816.38
598.54	807.94
598.89	799.94
599.24	792.32
599.59	784.54
599.94	777.33
600.29	770.08
600.64	762.80
600.99	755.38
601.34	748.17
601.69	740.47
602.04	733.50
602.39	726.47
602.74	719.65
603.08	712.97
603.43	706.29
603.78	699.59
604.13	692.99
604.48	686.46
604.83	680.12
605.18	673.80
605.53	667.69
605.87	661.56
606.22	655.49
606.57	649.35
606.92	643.15
607.27	636.95
607.62	631.02
607.96	625.29
608.31	619.93
608.66	614.48
609.01	609.29
609.36	604.09
609.70	598.85
610.05	593.64
610.40	588.56
610.75	583.55
611.10	578.73
611.44	573.88
611.79	569.12
612.14	564.31
612.49	559.59
612.83	555.09
613.18	550.65
613.53	546.25
613.88	541.97
614.22	537.98
614.57	533.92
614.92	529.91
615.27	526.02
615.61	522.13
615.96	518.24
616.31	514.33
616.65	510.59
617.00	506.91
617.35	503.32
617.70	499.74
618.04	496.22
618.39	492.81
618.74	489.61
619.08	486.38
619.43	483.23
619.78	480.04
620.12	476.86
620.47	473.87
620.82	470.94
621.16	468.02
621.51	465.20
621.85	462.40
622.20	459.63
622.55	456.87
622.89	454.15
623.24	451.60
623.59	449.09
623.93	446.60
624.28	444.27
624.62	442.10
624.97	439.97
625.32	437.71
625.66	435.46
626.01	433.14
626.35	430.98
626.70	428.77
627.04	426.76
627.39	424.68
627.73	422.68
628.08	420.75
628.43	418.87
628.77	416.83
629.12	414.94
629.46	413.13
629.81	411.43
630.15	409.64
630.50	407.85
630.84	406.14
631.19	404.52
631.53	402.94
631.88	401.16
632.22	399.46
632.57	398.05
632.91	396.58
633.26	395.24
633.60	393.88
633.95	392.59
634.29	391.20
634.64	389.87
634.98	388.38
635.32	387.03
635.67	385.81
636.01	384.63
636.36	383.48
636.70	382.44
637.05	381.20
637.39	380.11
637.73	379.02
638.08	377.97
638.42	376.96
638.77	375.83
639.11	374.68
639.45	373.56
639.80	372.39
640.14	371.32
640.49	370.19
640.83	369.08
641.17	368.01
641.52	366.95
641.86	365.93
642.20	365.09
642.55	364.09
642.89	363.04
643.23	362.09
643.58	361.26
643.92	360.23
644.26	359.30
644.61	358.43
644.95	357.51
645.29	356.53
645.64	355.51
645.98	354.59
646.32	353.79
646.66	352.95
647.01	352.10
647.35	351.32
647.69	350.52
648.04	349.80
648.38	349.02
648.72	348.29
649.06	347.54
649.41	346.75
649.75	345.99
650.09	345.31
650.43	344.57
650.78	343.78
651.12	343.05
651.46	342.31
651.80	341.58
652.14	340.90
652.49	340.30
652.83	339.62
653.17	338.94
653.51	338.28
653.85	337.70
654.20	337.08
654.54	336.36
654.88	335.68
655.22	335.03
655.56	334.34
655.90	333.69
656.25	333.05
656.59	332.43
656.93	331.87
657.27	331.30
657.61	330.69
657.95	330.12
658.29	329.55
658.64	329.00
658.98	328.41
659.32	327.83
659.66	327.27
660.00	326.77
660.34	326.24
660.68	325.66
661.02	325.02
661.36	324.43
661.70	323.91
662.05	323.38
662.39	322.86
662.73	322.42
663.07	322.00
663.41	321.54
663.75	320.99
664.09	320.45
664.43	319.82
664.77	319.30
665.11	318.73
665.45	318.20
665.79	317.70
666.13	317.15
666.47	316.61
666.81	316.03
667.15	315.42
667.49	314.95
667.83	314.53
668.17	314.07
668.51	313.64
668.85	313.22
669.19	312.86
669.53	312.33
669.87	311.76
670.21	311.22
670.55	310.69
670.89	310.31
671.23	309.87
671.57	309.49
671.91	309.13
672.25	308.78
672.58	308.42
672.92	307.99
673.26	307.61
673.60	307.23
673.94	306.87
674.28	306.52
674.62	306.12
674.96	305.67
675.30	305.28
675.64	304.82
675.97	304.36
676.31	303.86
676.65	303.44
676.99	303.12
677.33	302.66
677.67	302.26
678.01	301.74
678.34	301.31
678.68	300.89
679.02	300.42
679.36	299.97
679.70	299.49
680.04	299.09
680.37	298.69
680.71	298.27
681.05	297.87
681.39	297.42
681.73	296.94
682.06	296.50
682.40	296.06
682.74	295.71
683.08	295.40
683.42	295.03
683.75	294.66
684.09	294.18
684.43	293.78
684.77	293.35
685.10	292.99
685.44	292.59
685.78	292.18
686.12	291.76
686.45	291.33
686.79	290.90
687.13	290.47
687.46	290.00
687.80	289.60
688.14	289.12
688.48	288.72
688.81	288.31
689.15	287.96
689.49	287.54
689.82	287.10
690.16	286.56
690.50	286.10
690.83	285.67
691.17	285.21
691.51	284.79
691.84	284.40
692.18	283.98
692.52	283.52
692.85	283.10
693.19	282.74
693.52	282.33
693.86	281.89
694.20	281.47
694.53	281.09
694.87	280.63
695.21	280.20
695.54	279.75
695.88	279.30
696.21	278.80
696.55	278.37
696.88	277.93
697.22	277.51
697.56	277.10
697.89	276.62
698.23	276.23
698.56	275.80
698.90	275.39
699.23	274.95
699.57	274.56
699.90	274.15
700.24	273.71
700.58	273.30
700.91	272.96
701.25	272.72
701.58	272.42
701.92	272.11
702.25	271.76
702.59	271.37
702.92	271.00
703.26	270.64
703.59	270.27
703.93	270.06
704.26	269.71
704.60	269.34
704.93	268.99
705.26	268.59
705.60	268.26
705.93	267.85
706.27	267.55
706.60	267.22
706.94	266.92
707.27	266.53
707.61	266.18
707.94	265.80
708.27	265.29
708.61	264.84
708.94	264.41
709.28	264.03
709.61	263.69
709.94	263.36
710.28	263.04
710.61	262.73
710.95	262.23
711.28	262.01
711.61	261.68
711.95	261.39
712.28	261.05
712.61	260.70
712.95	260.48
713.28	260.23
713.61	259.88
713.95	259.52
714.28	259.22
714.61	258.89
714.95	258.58
715.28	258.26
715.61	258.00
715.95	257.75
716.28	257.48
716.61	257.23
716.95	256.93
717.28	256.60
717.61	256.32
717.94	256.05
718.28	255.66
718.61	255.38
718.94	255.08
719.27	254.82
719.61	254.59
719.94	254.30
720.27	253.95
720.60	253.69
720.94	253.44
721.27	253.20
721.60	253.00
721.93	252.77
722.27	252.58
722.60	252.33
722.93	252.06
723.26	251.86
723.59	251.58
723.93	251.35
724.26	251.17
724.59	250.92
724.92	250.70
725.25	250.52
725.59	250.33
725.92	250.14
726.25	249.93
726.58	249.72
726.91	249.48
727.24	249.29
727.57	249.07
727.91	248.82
728.24	248.64
728.57	248.41
728.90	248.22
729.23	247.95
729.56	247.83
729.89	247.64
730.22	247.41
730.55	247.23
730.89	247.04
731.22	246.83
731.55	246.64
731.88	246.45
732.21	246.23
732.54	246.02
732.87	245.83
733.20	245.66
733.53	245.49
733.86	245.34
734.19	245.14
734.52	245.00
734.85	244.99
735.18	244.79
735.51	244.69
735.84	244.53
736.17	244.43
736.50	244.18
736.83	244.23
737.16	244.05
737.49	243.90
737.82	243.74
738.15	243.59
738.48	243.45
738.81	243.28
739.14	243.11
739.47	242.96
739.80	242.81
740.13	242.68
740.46	242.48
740.79	242.30
741.12	242.15
741.45	241.97
741.78	241.71
742.11	241.60
742.44	241.39
742.77	241.26
743.10	241.09
743.43	240.94
743.75	240.60
744.08	240.76
744.41	240.60
744.74	240.46
745.07	240.30
745.40	240.20
745.73	240.13
746.06	240.01
746.39	239.90
746.71	239.77
747.04	239.62
747.37	239.50
747.70	239.40
748.03	239.28
748.36	239.19
748.68	239.08
749.01	238.92
749.34	238.81
749.67	238.69
750.00	238.61
750.33	238.64
750.65	238.55
750.98	238.19
751.31	238.11
751.64	238.02
751.97	238.01
752.29	237.88
752.62	237.70
752.95	237.61
753.28	237.46
753.60	237.33
753.93	237.29
754.26	237.20
754.59	237.05
754.91	236.94
755.24	236.83
755.57	236.73
755.90	236.63
756.22	236.51
756.55	236.39
756.88	236.26
757.20	236.02
757.53	235.87
757.86	235.77
758.19	235.68
758.51	235.57
758.84	235.39
759.17	235.29
759.49	235.23
759.82	235.22
760.15	235.18
760.47	235.08
760.80	234.93
761.13	234.87
761.45	234.79
761.78	234.70
762.11	234.61
762.43	234.51
762.76	234.42
763.08	234.36
763.41	234.30
763.74	234.22
764.06	234.15
764.39	234.07
764.71	233.99
765.04	233.87
765.37	233.80
765.69	233.72
766.02	233.67
766.34	233.56
766.67	233.41
767.00	233.38
767.32	233.41
767.65	233.46
767.97	233.38
768.30	233.32
768.62	233.28
768.95	233.20
769.27	233.13
769.60	233.10
769.92	233.01
770.25	232.92
770.57	232.84
770.90	232.78
771.22	232.72
771.55	232.66
771.87	232.63
772.20	232.55
772.52	232.65
772.85	232.80
773.17	232.78
773.50	232.72
773.82	232.63
774.15	232.48
774.47	232.31
774.80	232.24
775.12	232.18
775.45	232.13
775.77	232.09
776.09	232.07
776.42	232.01
776.74	232.03
777.07	231.98
777.39	231.94
777.72	231.89
778.04	231.88
778.36	231.82
778.69	231.80
779.01	231.78
779.33	231.60
779.66	231.35
779.98	231.29
780.31	231.25
780.63	231.30
780.95	231.31
781.28	231.27
781.60	231.21
781.92	231.18
782.25	231.11
782.57	231.07
782.89	231.01
783.22	230.96
783.54	230.89
783.86	230.87
784.19	230.83
784.51	230.87
784.83	230.82
785.16	230.77
785.48	230.73
785.80	230.69
786.12	230.66
786.45	230.64
786.77	230.63
787.09	230.59
787.42	230.49
787.74	230.43
788.06	230.43
788.38	230.40
788.71	230.37
789.03	230.37
789.35	230.37
789.67	230.32
789.99	230.32
790.32	230.26
790.64	230.25
790.96	230.40
791.28	230.30
791.61	230.24
791.93	230.24
792.25	230.21
792.57	230.30
792.89	230.25
793.21	230.24
793.54	230.19
793.86	230.15
794.18	230.13
794.50	230.10
794.82	230.06
795.14	230.07
795.47	230.07
795.79	230.05
796.11	229.98
796.43	229.97
796.75	229.93
797.07	229.93
797.39	229.90
797.71	229.74
798.04	229.74
798.36	229.76
798.68	229.71
799.00	229.72
799.32	229.60
799.64	229.61
799.96	229.58
800.28	229.60
800.60	229.58
800.92	229.59
801.24	229.56
801.56	229.56
801.89	229.53
802.21	229.51
802.53	229.46
802.85	229.50
803.17	229.56
803.49	229.50
803.81	229.48
804.13	229.44
804.45	229.39
804.77	229.39
805.09	229.37
805.41	229.35
805.73	229.29
806.05	229.23
806.37	229.19
806.69	229.16
807.01	229.12
807.33	229.11
807.65	229.04
807.97	229.10
808.28	229.07
808.60	229.07
808.92	229.03
809.24	229.12
809.56	229.07
809.88	228.98
810.20	229.01
810.52	229.01
810.84	228.99
811.16	228.95
811.48	228.93
811.80	228.97
812.12	228.97
812.43	229.02
812.75	229.02
813.07	229.00
813.39	229.00
813.71	228.98
814.03	228.95
814.35	228.92
814.67	228.83
814.98	228.80
815.30	228.78
815.62	228.74
815.94	228.60
816.26	228.61
816.58	228.57
816.89	228.56
817.21	228.50
817.53	228.50
817.85	228.51
818.17	228.50
818.48	228.42
818.80	228.43
819.12	228.38
819.44	228.34
819.76	228.32
820.07	228.27
820.39	228.26
820.71	228.27
821.03	228.27
821.34	228.27
821.66	228.29
821.98	228.30
822.30	228.27
822.61	228.40
822.93	228.33
823.25	228.31
823.57	228.29
823.88	228.30
824.20	228.27
824.52	228.29
824.83	228.25
825.15	228.23
825.47	228.19
825.79	228.18
826.10	228.16
826.42	228.14
826.74	228.16
827.05	228.15
827.37	228.14
827.69	228.10
828.00	228.09
828.32	228.05
828.64	228.00
828.95	228.10
829.27	228.03
829.58	228.03
829.90	228.06
830.22	228.06
830.53	228.04
830.85	228.02
831.17	227.95
831.48	227.97
831.80	227.97
832.11	227.95
832.43	227.94
832.75	227.95
833.06	228.04
833.38	227.99
833.69	227.96
834.01	227.96
834.32	227.96
834.64	227.94
834.96	227.95
835.27	227.96
835.59	227.89
835.90	227.86
836.22	227.86
836.53	227.80
836.85	227.78
837.16	227.96
837.48	227.97
837.79	228.03
838.11	228.02
838.42	228.01
838.74	228.01
839.05	227.98
839.37	227.95
839.68	227.84
840.00	227.84
840.31	227.86
840.63	227.83
840.94	227.81
841.26	227.80
841.57	227.78
841.88	227.81
842.20	227.77
842.51	227.75
842.83	227.72
843.14	227.90
843.46	227.89
843.77	227.78
844.08	227.76
844.40	227.69
844.71	227.67
845.03	227.64
845.34	227.64
845.65	227.66
845.97	227.67
846.28	227.69
846.60	227.71
846.91	227.69
847.22	227.69
847.54	227.73
847.85	227.72
848.16	227.71
848.48	227.67
848.79	227.72
849.10	227.76
849.42	227.78
849.73	227.60
850.04	227.60
850.36	227.53
850.67	227.56
850.98	227.58
851.30	227.57
851.61	227.57
851.92	227.56
852.23	227.60
852.55	227.60
852.86	227.60
853.17	227.59
853.49	227.61
853.80	227.65
854.11	227.65
854.42	227.67
854.74	227.66
855.05	227.66
855.36	227.57
855.67	227.56
855.99	227.55
856.30	227.78
856.61	227.77
856.92	227.76
857.23	227.75
857.55	227.73
857.86	227.73
858.17	227.74
858.48	227.70
858.79	227.66
859.11	227.66
859.42	227.64
859.73	227.62
860.04	227.62
860.35	227.56
860.66	227.52
860.98	227.50
861.29	227.50
861.60	227.49
861.91	227.51
862.22	227.49
862.53	227.46
862.84	227.25
863.16	227.29
863.47	227.27
863.78	227.25
864.09	227.25
864.40	227.26
864.71	227.26
865.02	227.31
865.33	227.30
865.64	227.27
865.95	227.28
866.27	227.40
866.58	227.38
866.89	227.40
867.20	227.40
867.51	227.38
867.82	227.38
868.13	227.43
868.44	227.41
868.75	227.45
869.06	227.46
869.37	227.49
869.68	227.44
869.99	227.46
870.30	227.48
870.61	227.50
870.92	227.48
871.23	227.46
871.54	227.46
871.85	227.50
872.16	227.52
872.47	227.51
872.78	227.40
873.09	227.41
873.40	227.39
873.71	227.39
874.02	227.39
874.33	227.36
874.64	227.32
874.95	227.34
875.26	227.29
875.56	227.29
875.87	227.25
876.18	227.24
876.49	227.41
876.80	227.39
877.11	227.36
877.42	227.38
877.73	227.39
878.04	227.36
878.35	227.35
878.66	227.35
878.96	227.33
879.27	227.32
879.58	227.31
879.89	227.30
880.20	227.34
880.51	227.33
880.82	227.36
881.12	227.37
881.43	227.34
881.74	227.32
882.05	227.31
882.36	227.34
882.67	227.35
882.97	227.16
883.28	227.14
883.59	227.13
883.90	227.13
884.21	227.15
884.51	227.15
884.82	227.13
885.13	227.12
885.44	227.12
885.74	227.12
886.05	227.13
886.36	227.13
886.67	227.09
886.98	227.18
887.28	227.20
887.59	227.20
887.90	227.20
888.20	227.20
888.51	227.22
888.82	227.19
889.13	227.20
889.43	227.35
889.74	227.34
890.05	227.33
890.35	227.33
890.66	227.31
890.97	227.29
891.28	227.28
891.58	227.30
891.89	227.29
892.20	227.28
892.50	227.25
892.81	227.25
893.12	227.23
893.42	227.15
893.73	227.14
894.04	227.14
894.34	227.15
894.65	227.16
894.95	227.16
895.26	227.16
895.57	227.23
895.87	227.06
896.18	227.09
896.48	227.10
896.79	227.09
897.10	227.11
897.40	227.12
897.71	227.13
898.01	227.10
898.32	227.13
898.63	227.12
898.93	227.13
899.24	227.15
899.54	227.13
899.85	227.12
900.15	227.11
900.46	227.10
900.76	227.12
901.07	227.11
901.38	227.09
901.68	227.11
901.99	227.00
902.29	227.02
902.60	227.03
902.90	227.01
903.21	226.99
903.51	226.95
903.82	226.99
904.12	226.99
904.43	227.01
904.73	227.00
905.03	227.01
905.34	227.19
905.64	227.18
905.95	227.18
906.25	227.19
906.56	227.17
906.86	227.17
907.17	227.15
907.47	227.15
907.77	227.15
908.08	227.12
908.38	227.14
908.69	227.16
908.99	227.18
909.30	227.19
909.60	227.20
909.90	227.20
910.21	227.15
910.51	227.13
910.81	227.13
911.12	227.13
911.42	227.12
911.73	226.93
912.03	226.92
912.33	226.95
912.64	226.94
912.94	226.92
913.24	226.88
913.55	226.88
913.85	226.87
914.15	226.89
914.46	226.92
914.76	226.91
915.06	226.90
915.37	226.87
915.67	226.86
915.97	226.85
916.27	226.84
916.58	226.84
916.88	226.83
917.18	226.81
917.49	226.94
917.79	226.92
918.09	226.96
918.39	227.02
918.70	227.02
919.00	227.03
919.30	227.11
919.60	227.11
919.91	227.09
920.21	227.10
920.51	227.08
920.81	227.05
921.12	227.07
921.42	227.03
921.72	227.04
922.02	227.03
922.32	227.05
922.63	227.06
922.93	227.16
923.23	227.17
923.53	227.15
923.83	227.02
924.13	227.04
924.44	227.03
924.74	227.04
925.04	227.06
925.34	227.05
925.64	226.98
925.94	226.97
926.24	227.07
926.55	227.04
926.85	227.05
927.15	227.04
927.45	227.05
927.75	227.06
928.05	227.06
928.35	227.05
928.65	227.08
928.95	227.09
929.26	227.01
929.56	227.04
929.86	227.05
930.16	227.05
930.46	227.03
930.76	227.06
931.06	226.97
931.36	226.91
931.66	226.95
931.96	226.97
932.26	226.99
932.56	226.93
932.86	226.93
933.16	226.93
933.46	226.91
933.76	226.89
934.06	226.92
934.36	226.96
934.66	226.97
934.96	226.93
935.26	226.95
935.56	226.97
935.86	226.94
936.16	226.91
936.46	226.91
936.76	226.89
937.06	226.83
937.36	226.86
937.66	226.89
937.96	226.88
938.26	226.85
938.56	226.83
938.86	226.83
939.16	226.89
939.46	226.91
939.76	226.93
940.06	226.93
940.35	226.91
940.65	226.83
940.95	226.84
941.25	226.81
941.55	226.78
941.85	226.76
942.15	226.78
942.45	226.84
942.75	226.84
943.04	226.86
943.34	226.91
943.64	226.90
943.94	226.86
944.24	226.86
944.54	226.88
944.84	226.88
945.13	226.85
945.43	226.81
945.73	226.80
946.03	226.79
946.33	226.78
946.62	226.77
946.92	226.77
947.22	226.79
947.52	226.82
947.82	226.83
948.11	226.83
948.41	226.79
948.71	226.75
949.01	226.76
949.31	226.74
949.60	226.73
949.90	226.75
950.20	226.77
950.50	226.76
950.79	226.75
951.09	226.77
951.39	226.78
951.69	226.76
951.98	226.79
952.28	226.80
952.58	226.81
952.87	226.82
953.17	226.84
953.47	226.82
953.76	226.80
954.06	226.77
954.36	226.75
954.66	226.76
954.95	226.80
955.25	226.81
955.55	226.83
955.84	226.80
956.14	226.81
956.44	226.81
956.73	226.78
957.03	226.80
957.32	226.80
957.62	226.80
957.92	226.82
958.21	226.82
958.51	227.03
958.81	227.03
959.10	227.05
959.40	227.09
959.69	227.11
959.99	227.14
960.29	227.14
960.58	227.12
960.88	227.18
961.17	227.15
961.47	227.16
961.76	227.13
962.06	227.17
962.36	227.14
962.65	227.15
962.95	227.17
963.24	227.13
963.54	227.13
963.83	227.14
964.13	227.15
964.42	227.12
964.72	226.97
965.01	226.97
965.31	226.95
965.60	226.89
965.90	227.00
966.19	226.97
966.49	226.97
966.78	226.98
967.08	226.96
967.37	226.97
967.67	226.95
967.96	226.98
968.26	226.96
968.55	226.98
968.85	226.96
969.14	226.96
969.43	226.96
969.73	226.95
970.02	226.94
970.32	226.92
970.61	226.89
970.91	226.85
971.20	226.84
971.49	226.82
971.79	226.85
972.08	226.71
972.38	226.72
972.67	226.74
972.96	226.77
973.26	226.73
973.55	226.79
973.85	226.78
974.14	226.75
974.43	226.78
974.73	226.76
975.02	226.74
975.31	226.75
975.61	226.74
975.90	226.72
976.19	226.72
976.49	226.72
976.78	226.74
977.07	226.72
977.37	226.73
977.66	226.75
977.95	226.72
978.24	226.75
978.54	226.81
978.83	226.80
979.12	226.79
979.42	226.79
979.71	226.75
980.00	226.74
980.29	226.75
980.59	226.72
980.88	226.79
981.17	226.79
981.46	226.78
981.76	226.80
982.05	226.87
982.34	226.88
982.63	226.88
982.93	226.88
983.22	226.94
983.51	226.94
983.80	226.96
984.09	226.99
984.39	226.97
984.68	226.92
984.97	226.92
985.26	226.91
985.55	226.92
985.85	226.89
986.14	226.92
986.43	226.95
986.72	226.94
987.01	226.85
987.30	226.87
987.59	226.86
987.89	226.85
988.18	226.80
988.47	226.78
988.76	226.77
989.05	226.75
989.34	226.73
989.63	226.76
989.92	226.73
990.22	226.72
990.51	226.73
990.80	226.72
991.09	226.72
991.38	226.75
991.67	226.72
991.96	226.71
992.25	226.73
992.54	226.69
992.83	226.69
993.12	226.70
993.41	226.72
993.70	226.80
993.99	226.85
994.28	226.87
994.58	226.92
994.87	226.89
995.16	226.88
995.45	226.85
995.74	226.80
996.03	226.82
996.32	226.84
996.61	226.86
996.90	226.86
997.19	226.85
997.48	226.85
997.77	226.83
998.06	226.85
998.34	226.81
998.63	226.81
998.92	226.83
999.21	226.87
999.50	226.87
999.79	226.80
1000.08	226.79
1000.37	226.79
1000.66	226.75
1000.95	226.81
1001.24	226.83
1001.53	226.87
1001.82	226.86
1002.11	226.83
1002.40	226.85
1002.68	226.88
1002.97	227.02
1003.26	226.99
1003.55	226.97
1003.84	226.99
1004.13	227.05
1004.42	227.04
1004.71	227.04
1004.99	227.00
1005.28	227.04
1005.57	227.02
1005.86	227.00
1006.15	226.99
1006.44	226.94
1006.72	226.96
1007.01	226.94
1007.30	226.94
1007.59	226.91
1007.88	226.92
1008.17	226.94
1008.45	226.90
1008.74	226.84
1009.03	226.74
1009.32	226.74
1009.60	226.74
1009.89	226.73
1010.18	226.66
1010.47	226.64
1010.76	226.64
1011.04	226.64
1011.33	226.62
1011.62	226.64
1011.91	226.65
1012.19	226.66
1012.48	226.67
1012.77	226.67
1013.05	226.73
1013.34	226.72
1013.63	226.73
1013.92	226.72
1014.20	226.72
1014.49	226.71
1014.78	226.73
1015.06	226.70
1015.35	226.70
1015.64	226.72
1015.92	226.76
1016.21	226.77
1016.50	226.79
1016.78	226.81
1017.07	226.82
1017.36	226.78
1017.64	226.75
1017.93	226.76
1018.22	226.74
1018.50	226.74
1018.79	226.73
1019.08	226.66
1019.36	226.67
1019.65	226.64
1019.93	226.69
1020.22	226.72
1020.51	226.82
1020.79	226.78
1021.08	226.44
1021.36	226.30
1021.65	226.78
1021.94	226.57
1022.22	226.98
1022.51	226.25
1022.79	227.49
1023.08	227.12
1023.36	228.85
1023.65	226.21
>>>>>End Processed Spectral Data<<<<<
