SpectraSuite Data File
++++++++++++++++++++++++++++++++++++
Date: Tue Oct 06 12:08:10 EDT 2015
User: lab3
Dark Spectrum Present: No
Reference Spectrum Present: No
Number of Sampled Component Spectra: 1
Spectrometers: USB2E7196
Integration Time (usec): 66000 (USB2E7196)
Spectra Averaged: 400 (USB2E7196)
Boxcar Smoothing: 10 (USB2E7196)
Correct for Electrical Dark: No (USB2E7196)
Strobe/Lamp Enabled: No (USB2E7196)
Correct for Detector Non-linearity: No (USB2E7196)
Correct for Stray Light: No (USB2E7196)
Number of Pixels in Processed Spectrum: 2048
>>>>>Begin Processed Spectral Data<<<<<
339.09	0.00
339.48	216.61
339.86	218.25
340.24	219.82
340.63	220.93
341.01	225.08
341.39	223.96
341.78	225.48
342.16	226.46
342.54	227.10
342.93	215.28
343.31	226.15
343.69	226.72
344.07	227.18
344.46	227.63
344.84	228.05
345.22	228.25
345.60	228.53
345.99	228.74
346.37	228.89
346.75	228.99
347.13	229.07
347.52	229.17
347.90	229.29
348.28	229.34
348.66	229.40
349.05	229.41
349.43	229.49
349.81	229.57
350.19	229.61
350.57	229.69
350.96	229.79
351.34	229.90
351.72	229.98
352.10	230.09
352.48	230.15
352.87	230.18
353.25	230.24
353.63	230.30
354.01	230.34
354.39	230.44
354.77	230.50
355.15	230.61
355.54	230.65
355.92	230.65
356.30	230.73
356.68	230.92
357.06	230.97
357.44	231.00
357.82	231.05
358.20	231.26
358.58	231.32
358.97	231.37
359.35	231.45
359.73	231.55
360.11	231.60
360.49	231.65
360.87	231.71
361.25	231.76
361.63	231.84
362.01	231.90
362.39	231.89
362.77	231.94
363.15	231.96
363.53	231.99
363.91	232.02
364.29	232.02
364.67	231.88
365.05	231.89
365.43	231.94
365.81	231.97
366.19	231.92
366.57	231.99
366.95	231.99
367.33	231.95
367.71	231.92
368.09	231.95
368.47	231.93
368.85	231.91
369.23	231.95
369.61	231.88
369.99	231.91
370.37	231.93
370.75	232.04
371.13	231.99
371.51	231.94
371.89	231.93
372.27	231.93
372.65	231.90
373.03	231.86
373.41	231.82
373.78	231.76
374.16	231.66
374.54	231.55
374.92	231.48
375.30	231.44
375.68	231.38
376.06	231.36
376.44	231.31
376.82	231.29
377.19	231.23
377.57	231.18
377.95	231.08
378.33	231.01
378.71	230.81
379.09	230.77
379.47	230.75
379.84	230.68
380.22	230.59
380.60	230.51
380.98	230.49
381.36	230.43
381.73	230.37
382.11	230.33
382.49	230.30
382.87	230.25
383.25	230.21
383.62	230.37
384.00	230.29
384.38	230.25
384.76	230.23
385.13	230.25
385.51	230.21
385.89	230.14
386.27	230.11
386.64	230.11
387.02	230.07
387.40	230.02
387.78	230.01
388.15	230.02
388.53	229.99
388.91	229.94
389.29	229.92
389.66	229.92
390.04	229.89
390.42	229.90
390.79	229.90
391.17	229.88
391.55	229.68
391.92	229.69
392.30	229.70
392.68	229.69
393.05	229.67
393.43	229.68
393.81	229.70
394.18	229.70
394.56	229.71
394.94	229.76
395.31	229.77
395.69	229.85
396.06	229.90
396.44	229.94
396.82	229.97
397.19	230.09
397.57	230.11
397.95	230.20
398.32	230.20
398.70	230.28
399.07	230.40
399.45	230.45
399.82	230.52
400.20	230.58
400.58	230.66
400.95	230.69
401.33	230.83
401.70	231.05
402.08	231.19
402.45	231.32
402.83	231.49
403.20	231.65
403.58	231.78
403.95	231.99
404.33	232.23
404.71	232.45
405.08	232.77
405.46	233.02
405.83	233.28
406.21	233.56
406.58	233.88
406.96	234.19
407.33	234.58
407.70	235.00
408.08	235.55
408.45	236.04
408.83	236.57
409.20	237.06
409.58	237.52
409.95	238.14
410.33	238.81
410.70	239.45
411.08	240.20
411.45	240.99
411.82	241.81
412.20	242.70
412.57	243.80
412.95	244.68
413.32	245.81
413.69	247.00
414.07	248.25
414.44	249.62
414.82	251.02
415.19	252.65
415.56	254.29
415.94	256.01
416.31	257.96
416.68	259.92
417.06	262.17
417.43	264.28
417.81	266.70
418.18	269.17
418.55	271.88
418.93	274.70
419.30	277.65
419.67	280.77
420.04	284.00
420.42	287.37
420.79	291.23
421.16	295.15
421.54	299.11
421.91	303.25
422.28	307.56
422.66	312.19
423.03	316.60
423.40	321.24
423.77	326.22
424.15	331.31
424.52	336.55
424.89	342.28
425.26	347.95
425.64	353.20
426.01	359.10
426.38	365.14
426.75	371.36
427.13	377.68
427.50	384.32
427.87	391.16
428.24	398.06
428.61	404.70
428.99	411.86
429.36	419.76
429.73	427.34
430.10	434.88
430.47	442.57
430.85	450.55
431.22	459.08
431.59	467.77
431.96	476.24
432.33	485.70
432.70	494.66
433.08	505.34
433.45	515.42
433.82	525.27
434.19	536.32
434.56	547.15
434.93	557.72
435.30	568.17
435.68	580.09
436.05	591.71
436.42	603.37
436.79	613.97
437.16	625.40
437.53	637.69
437.90	650.00
438.27	662.05
438.64	674.93
439.01	686.69
439.38	697.61
439.75	708.10
440.13	720.06
440.50	731.42
440.87	740.44
441.24	750.39
441.61	761.27
441.98	769.21
442.35	778.66
442.72	788.28
443.09	797.58
443.46	803.68
443.83	808.17
444.20	811.81
444.57	817.27
444.94	820.60
445.31	823.88
445.68	826.66
446.05	828.72
446.42	828.37
446.79	827.78
447.16	827.24
447.53	826.87
447.90	823.28
448.27	819.80
448.64	814.39
449.01	810.73
449.37	803.21
449.74	796.45
450.11	787.67
450.48	777.97
450.85	768.15
451.22	759.57
451.59	751.31
451.96	743.94
452.33	733.19
452.70	723.51
453.07	711.83
453.43	700.26
453.80	688.99
454.17	678.22
454.54	668.17
454.91	656.76
455.28	645.97
455.65	635.76
456.02	625.06
456.38	616.46
456.75	605.30
457.12	596.31
457.49	587.24
457.86	578.71
458.23	571.27
458.59	563.00
458.96	554.55
459.33	547.14
459.70	539.58
460.07	533.69
460.43	526.82
460.80	520.42
461.17	514.78
461.54	508.72
461.91	503.05
462.27	497.31
462.64	492.66
463.01	487.31
463.38	482.01
463.74	477.17
464.11	472.88
464.48	469.03
464.85	464.89
465.21	461.67
465.58	458.10
465.95	454.03
466.32	450.79
466.68	447.60
467.05	444.36
467.42	441.25
467.78	437.93
468.15	434.87
468.52	432.61
468.88	429.66
469.25	426.96
469.62	424.84
469.98	422.48
470.35	420.38
470.72	418.49
471.08	416.53
471.45	414.91
471.82	413.06
472.18	411.19
472.55	409.93
472.92	408.42
473.28	407.24
473.65	405.93
474.02	404.75
474.38	403.73
474.75	403.14
475.11	402.26
475.48	401.85
475.85	401.44
476.21	401.20
476.58	401.04
476.94	401.23
477.31	401.28
477.67	401.42
478.04	401.71
478.41	402.12
478.77	402.73
479.14	403.10
479.50	403.88
479.87	404.85
480.23	405.81
480.60	406.71
480.96	407.64
481.33	409.07
481.69	410.44
482.06	411.85
482.42	413.14
482.79	414.72
483.15	416.61
483.52	418.72
483.88	420.78
484.25	422.95
484.61	425.23
484.98	427.65
485.34	430.40
485.71	433.26
486.07	436.30
486.44	439.30
486.80	442.67
487.17	446.12
487.53	449.87
487.90	453.80
488.26	458.15
488.62	462.68
488.99	467.23
489.35	472.06
489.72	477.23
490.08	482.66
490.44	488.21
490.81	493.87
491.17	499.68
491.54	505.86
491.90	512.24
492.26	519.02
492.63	526.14
492.99	533.49
493.36	541.14
493.72	549.20
494.08	557.41
494.45	566.03
494.81	575.02
495.17	584.27
495.54	594.02
495.90	604.16
496.26	614.56
496.63	625.19
496.99	636.16
497.35	647.60
497.72	659.37
498.08	671.62
498.44	684.15
498.80	697.49
499.17	711.18
499.53	725.23
499.89	739.63
500.26	754.15
500.62	768.98
500.98	784.50
501.34	800.24
501.71	816.66
502.07	833.34
502.43	850.47
502.79	867.67
503.16	885.36
503.52	903.30
503.88	921.76
504.24	940.60
504.60	959.72
504.97	979.28
505.33	999.31
505.69	1020.19
506.05	1041.22
506.41	1062.10
506.78	1083.31
507.14	1105.32
507.50	1127.86
507.86	1150.79
508.22	1173.82
508.59	1196.55
508.95	1220.13
509.31	1244.21
509.67	1268.96
510.03	1293.59
510.39	1318.61
510.75	1343.65
511.12	1368.69
511.48	1393.64
511.84	1418.73
512.20	1444.24
512.56	1470.13
512.92	1495.87
513.28	1521.36
513.64	1547.05
514.00	1572.77
514.37	1598.70
514.73	1624.37
515.09	1649.45
515.45	1674.77
515.81	1700.17
516.17	1725.74
516.53	1750.58
516.89	1775.34
517.25	1800.11
517.61	1824.72
517.97	1849.53
518.33	1873.84
518.69	1898.09
519.05	1922.48
519.41	1946.77
519.77	1971.02
520.13	1994.98
520.49	2018.61
520.85	2042.32
521.21	2065.91
521.57	2089.72
521.93	2112.40
522.29	2135.47
522.65	2158.01
523.01	2180.41
523.37	2201.89
523.73	2223.78
524.09	2245.77
524.45	2267.73
524.81	2288.80
525.17	2309.69
525.53	2329.87
525.89	2350.28
526.25	2370.27
526.61	2389.20
526.97	2408.28
527.33	2426.72
527.68	2444.29
528.04	2461.28
528.40	2477.23
528.76	2493.67
529.12	2508.92
529.48	2524.48
529.84	2538.86
530.20	2554.37
530.56	2568.73
530.91	2583.06
531.27	2596.35
531.63	2608.67
531.99	2620.65
532.35	2631.12
532.71	2641.52
533.07	2652.18
533.42	2661.37
533.78	2671.32
534.14	2681.49
534.50	2690.16
534.86	2699.10
535.21	2706.04
535.57	2713.15
535.93	2720.55
536.29	2726.85
536.65	2733.36
537.00	2737.82
537.36	2742.64
537.72	2745.77
538.08	2748.60
538.44	2750.44
538.79	2752.68
539.15	2754.30
539.51	2755.40
539.87	2757.16
540.22	2756.88
540.58	2757.06
540.94	2756.88
541.29	2755.25
541.65	2752.08
542.01	2749.09
542.37	2744.95
542.72	2742.61
543.08	2738.86
543.44	2734.90
543.79	2729.21
544.15	2723.37
544.51	2718.40
544.87	2711.46
545.22	2703.98
545.58	2696.74
545.94	2690.36
546.29	2682.31
546.65	2673.47
547.01	2664.64
547.36	2655.45
547.72	2646.28
548.07	2636.00
548.43	2625.50
548.79	2613.91
549.14	2603.32
549.50	2592.54
549.86	2581.36
550.21	2568.27
550.57	2556.55
550.92	2543.04
551.28	2530.31
551.64	2517.80
551.99	2505.34
552.35	2492.98
552.70	2480.27
553.06	2467.98
553.41	2454.59
553.77	2440.70
554.13	2427.23
554.48	2413.10
554.84	2398.40
555.19	2384.61
555.55	2369.96
555.90	2355.53
556.26	2342.02
556.61	2327.84
556.97	2312.76
557.32	2297.91
557.68	2283.38
558.03	2268.31
558.39	2254.08
558.74	2240.03
559.10	2224.04
559.45	2208.51
559.81	2193.61
560.16	2178.59
560.52	2163.16
560.87	2148.53
561.23	2133.56
561.58	2118.85
561.94	2103.38
562.29	2088.14
562.64	2072.85
563.00	2057.75
563.35	2043.31
563.71	2028.63
564.06	2013.55
564.42	1998.94
564.77	1984.46
565.12	1970.39
565.48	1956.20
565.83	1941.69
566.19	1927.31
566.54	1913.42
566.89	1898.31
567.25	1882.92
567.60	1868.58
567.96	1853.78
568.31	1838.41
568.66	1823.89
569.02	1809.40
569.37	1795.11
569.72	1781.11
570.08	1766.97
570.43	1752.71
570.78	1737.66
571.14	1722.68
571.49	1708.11
571.84	1694.32
572.20	1679.29
572.55	1664.45
572.90	1649.10
573.26	1633.88
573.61	1618.31
573.96	1603.43
574.31	1589.26
574.67	1575.48
575.02	1560.90
575.37	1546.06
575.72	1531.17
576.08	1516.59
576.43	1502.07
576.78	1487.60
577.13	1473.24
577.49	1458.91
577.84	1444.55
578.19	1430.35
578.54	1416.19
578.90	1401.97
579.25	1387.29
579.60	1373.81
579.95	1360.18
580.30	1346.85
580.66	1333.57
581.01	1320.43
581.36	1307.07
581.71	1293.72
582.06	1280.41
582.42	1267.33
582.77	1254.52
583.12	1242.07
583.47	1229.50
583.82	1217.01
584.17	1204.55
584.53	1192.13
584.88	1180.10
585.23	1167.90
585.58	1155.98
585.93	1144.08
586.28	1132.75
586.63	1121.30
586.98	1109.69
587.34	1098.47
587.69	1087.06
588.04	1075.98
588.39	1065.02
588.74	1054.01
589.09	1043.38
589.44	1032.27
589.79	1021.68
590.14	1011.28
590.49	1000.87
590.84	990.76
591.19	980.78
591.54	970.80
591.89	960.61
592.25	950.44
592.60	940.28
592.95	930.36
593.30	920.51
593.65	910.57
594.00	900.95
594.35	891.95
594.70	882.52
595.05	873.69
595.40	864.75
595.75	855.66
596.10	847.07
596.45	838.27
596.80	829.85
597.15	821.45
597.50	813.05
597.85	805.04
598.19	796.93
598.54	788.84
598.89	780.91
599.24	773.38
599.59	765.94
599.94	758.91
600.29	751.68
600.64	744.58
600.99	737.45
601.34	730.53
601.69	723.03
602.04	716.12
602.39	709.32
602.74	702.70
603.08	696.17
603.43	689.68
603.78	683.34
604.13	677.11
604.48	670.84
604.83	664.83
605.18	658.74
605.53	652.83
605.87	646.78
606.22	641.02
606.57	635.17
606.92	629.24
607.27	623.50
607.62	618.12
607.96	612.72
608.31	607.64
608.66	602.40
609.01	597.45
609.36	592.72
609.70	587.85
610.05	582.91
610.40	578.16
610.75	573.30
611.10	568.76
611.44	564.19
611.79	559.72
612.14	555.22
612.49	550.71
612.83	546.42
613.18	542.37
613.53	538.30
613.88	534.30
614.22	530.49
614.57	526.58
614.92	522.69
615.27	518.94
615.61	515.14
615.96	511.54
616.31	507.87
616.65	504.19
617.00	500.64
617.35	497.19
617.70	493.83
618.04	490.61
618.39	487.30
618.74	484.15
619.08	480.91
619.43	477.77
619.78	474.77
620.12	471.78
620.47	468.93
620.82	466.10
621.16	463.33
621.51	460.67
621.85	458.08
622.20	455.52
622.55	452.98
622.89	450.49
623.24	448.09
623.59	445.72
623.93	443.41
624.28	441.18
624.62	439.21
624.97	437.18
625.32	434.99
625.66	432.82
626.01	430.66
626.35	428.76
626.70	426.75
627.04	424.91
627.39	422.97
627.73	421.04
628.08	419.21
628.43	417.43
628.77	415.62
629.12	413.92
629.46	412.21
629.81	410.61
630.15	408.95
630.50	407.28
630.84	405.72
631.19	404.22
631.53	402.77
631.88	401.10
632.22	399.50
632.57	398.27
632.91	397.01
633.26	395.79
633.60	394.47
633.95	393.28
634.29	391.92
634.64	390.69
634.98	389.29
635.32	388.08
635.67	386.93
636.01	385.78
636.36	384.65
636.70	383.65
637.05	382.49
637.39	381.49
637.73	380.45
638.08	379.49
638.42	378.50
638.77	377.39
639.11	376.28
639.45	375.25
639.80	374.16
640.14	373.14
640.49	372.09
640.83	371.09
641.17	370.06
641.52	369.06
641.86	368.11
642.20	367.37
642.55	366.42
642.89	365.46
643.23	364.55
643.58	363.74
643.92	362.78
644.26	361.91
644.61	361.09
644.95	360.26
645.29	359.38
645.64	358.51
645.98	357.67
646.32	356.92
646.66	356.11
647.01	355.27
647.35	354.49
647.69	353.72
648.04	352.98
648.38	352.21
648.72	351.50
649.06	350.82
649.41	350.06
649.75	349.34
650.09	348.69
650.43	347.99
650.78	347.24
651.12	346.55
651.46	345.87
651.80	345.18
652.14	344.50
652.49	343.87
652.83	343.17
653.17	342.51
653.51	341.89
653.85	341.33
654.20	340.75
654.54	340.08
654.88	339.46
655.22	338.86
655.56	338.20
655.90	337.53
656.25	336.87
656.59	336.24
656.93	335.67
657.27	335.14
657.61	334.52
657.95	333.98
658.29	333.41
658.64	332.92
658.98	332.32
659.32	331.74
659.66	331.15
660.00	330.63
660.34	330.09
660.68	329.51
661.02	328.88
661.36	328.29
661.70	327.74
662.05	327.18
662.39	326.67
662.73	326.24
663.07	325.82
663.41	325.37
663.75	324.82
664.09	324.31
664.43	323.68
664.77	323.19
665.11	322.58
665.45	322.03
665.79	321.48
666.13	320.94
666.47	320.37
666.81	319.78
667.15	319.18
667.49	318.68
667.83	318.23
668.17	317.77
668.51	317.31
668.85	316.88
669.19	316.51
669.53	315.98
669.87	315.46
670.21	314.94
670.55	314.43
670.89	314.09
671.23	313.62
671.57	313.18
671.91	312.78
672.25	312.40
672.58	312.04
672.92	311.54
673.26	311.13
673.60	310.75
673.94	310.38
674.28	310.01
674.62	309.63
674.96	309.16
675.30	308.76
675.64	308.29
675.97	307.82
676.31	307.32
676.65	306.86
676.99	306.49
677.33	306.01
677.67	305.57
678.01	305.02
678.34	304.59
678.68	304.18
679.02	303.70
679.36	303.25
679.70	302.79
680.04	302.36
680.37	301.93
680.71	301.52
681.05	301.10
681.39	300.65
681.73	300.16
682.06	299.69
682.40	299.25
682.74	298.88
683.08	298.52
683.42	298.06
683.75	297.66
684.09	297.15
684.43	296.72
684.77	296.25
685.10	295.84
685.44	295.41
685.78	294.98
686.12	294.54
686.45	294.08
686.79	293.58
687.13	293.17
687.46	292.70
687.80	292.26
688.14	291.76
688.48	291.30
688.81	290.88
689.15	290.52
689.49	290.04
689.82	289.57
690.16	289.03
690.50	288.60
690.83	288.15
691.17	287.66
691.51	287.23
691.84	286.85
692.18	286.42
692.52	285.94
692.85	285.49
693.19	285.13
693.52	284.72
693.86	284.33
694.20	283.88
694.53	283.46
694.87	283.01
695.21	282.59
695.54	282.16
695.88	281.68
696.21	281.15
696.55	280.73
696.88	280.29
697.22	279.88
697.56	279.49
697.89	279.04
698.23	278.66
698.56	278.18
698.90	277.76
699.23	277.32
699.57	276.93
699.90	276.49
700.24	276.00
700.58	275.60
700.91	275.23
701.25	274.99
701.58	274.66
701.92	274.33
702.25	273.95
702.59	273.56
702.92	273.21
703.26	272.83
703.59	272.44
703.93	272.20
704.26	271.83
704.60	271.42
704.93	271.00
705.26	270.59
705.60	270.28
705.93	269.85
706.27	269.52
706.60	269.18
706.94	268.86
707.27	268.47
707.61	268.07
707.94	267.67
708.27	267.14
708.61	266.71
708.94	266.29
709.28	265.91
709.61	265.54
709.94	265.22
710.28	264.91
710.61	264.61
710.95	264.13
711.28	263.90
711.61	263.59
711.95	263.31
712.28	262.98
712.61	262.62
712.95	262.39
713.28	262.14
713.61	261.78
713.95	261.42
714.28	261.13
714.61	260.82
714.95	260.51
715.28	260.20
715.61	259.90
715.95	259.64
716.28	259.35
716.61	259.09
716.95	258.74
717.28	258.43
717.61	258.12
717.94	257.82
718.28	257.41
718.61	257.11
718.94	256.82
719.27	256.57
719.61	256.33
719.94	256.03
720.27	255.68
720.60	255.41
720.94	255.16
721.27	254.92
721.60	254.71
721.93	254.44
722.27	254.24
722.60	254.01
722.93	253.73
723.26	253.51
723.59	253.25
723.93	253.05
724.26	252.84
724.59	252.61
724.92	252.41
725.25	252.24
725.59	252.04
725.92	251.85
726.25	251.61
726.58	251.39
726.91	251.17
727.24	250.99
727.57	250.77
727.91	250.53
728.24	250.36
728.57	250.13
728.90	249.94
729.23	249.71
729.56	249.60
729.89	249.41
730.22	249.18
730.55	248.98
730.89	248.79
731.22	248.58
731.55	248.38
731.88	248.20
732.21	247.98
732.54	247.76
732.87	247.57
733.20	247.40
733.53	247.22
733.86	247.04
734.19	246.84
734.52	246.70
734.85	246.68
735.18	246.46
735.51	246.35
735.84	246.21
736.17	246.07
736.50	245.83
736.83	245.85
737.16	245.71
737.49	245.55
737.82	245.38
738.15	245.26
738.48	245.10
738.81	244.92
739.14	244.76
739.47	244.59
739.80	244.44
740.13	244.31
740.46	244.16
740.79	243.98
741.12	243.83
741.45	243.64
741.78	243.37
742.11	243.27
742.44	243.06
742.77	242.92
743.10	242.75
743.43	242.57
743.75	242.28
744.08	242.40
744.41	242.23
744.74	242.09
745.07	241.91
745.40	241.81
745.73	241.76
746.06	241.63
746.39	241.53
746.71	241.38
747.04	241.23
747.37	241.08
747.70	241.00
748.03	240.89
748.36	240.80
748.68	240.70
749.01	240.53
749.34	240.45
749.67	240.36
750.00	240.29
750.33	240.32
750.65	240.21
750.98	239.85
751.31	239.78
751.64	239.69
751.97	239.66
752.29	239.54
752.62	239.35
752.95	239.23
753.28	239.10
753.60	239.01
753.93	238.95
754.26	238.88
754.59	238.72
754.91	238.58
755.24	238.47
755.57	238.43
755.90	238.32
756.22	238.19
756.55	238.04
756.88	237.90
757.20	237.67
757.53	237.54
757.86	237.45
758.19	237.34
758.51	237.27
758.84	237.11
759.17	237.01
759.49	236.93
759.82	236.93
760.15	236.86
760.47	236.77
760.80	236.64
761.13	236.57
761.45	236.49
761.78	236.42
762.11	236.34
762.43	236.18
762.76	236.11
763.08	236.07
763.41	236.01
763.74	235.95
764.06	235.88
764.39	235.81
764.71	235.73
765.04	235.63
765.37	235.55
765.69	235.47
766.02	235.41
766.34	235.32
766.67	235.19
767.00	235.17
767.32	235.20
767.65	235.24
767.97	235.15
768.30	235.10
768.62	235.02
768.95	234.93
769.27	234.86
769.60	234.82
769.92	234.71
770.25	234.63
770.57	234.54
770.90	234.48
771.22	234.39
771.55	234.34
771.87	234.32
772.20	234.24
772.52	234.33
772.85	234.47
773.17	234.44
773.50	234.36
773.82	234.25
774.15	234.12
774.47	233.95
774.80	233.90
775.12	233.85
775.45	233.79
775.77	233.77
776.09	233.74
776.42	233.70
776.74	233.72
777.07	233.67
777.39	233.62
777.72	233.58
778.04	233.57
778.36	233.50
778.69	233.46
779.01	233.41
779.33	233.22
779.66	232.98
779.98	232.91
780.31	232.89
780.63	232.95
780.95	232.92
781.28	232.88
781.60	232.84
781.92	232.79
782.25	232.78
782.57	232.74
782.89	232.67
783.22	232.62
783.54	232.54
783.86	232.52
784.19	232.49
784.51	232.49
784.83	232.43
785.16	232.39
785.48	232.36
785.80	232.33
786.12	232.30
786.45	232.27
786.77	232.24
787.09	232.19
787.42	232.08
787.74	232.05
788.06	232.04
788.38	232.00
788.71	231.98
789.03	231.95
789.35	231.92
789.67	231.89
789.99	231.87
790.32	231.83
790.64	231.81
790.96	231.94
791.28	231.86
791.61	231.82
791.93	231.83
792.25	231.79
792.57	231.89
792.89	231.84
793.21	231.83
793.54	231.80
793.86	231.75
794.18	231.73
794.50	231.66
794.82	231.64
795.14	231.63
795.47	231.63
795.79	231.61
796.11	231.55
796.43	231.53
796.75	231.50
797.07	231.50
797.39	231.47
797.71	231.31
798.04	231.30
798.36	231.30
798.68	231.29
799.00	231.29
799.32	231.19
799.64	231.20
799.96	231.16
800.28	231.17
800.60	231.17
800.92	231.16
801.24	231.15
801.56	231.14
801.89	231.10
802.21	231.09
802.53	231.04
802.85	231.07
803.17	231.13
803.49	231.09
803.81	231.06
804.13	231.03
804.45	230.99
804.77	230.99
805.09	230.97
805.41	230.91
805.73	230.86
806.05	230.80
806.37	230.77
806.69	230.76
807.01	230.74
807.33	230.73
807.65	230.67
807.97	230.74
808.28	230.71
808.60	230.69
808.92	230.64
809.24	230.75
809.56	230.69
809.88	230.63
810.20	230.63
810.52	230.65
810.84	230.63
811.16	230.60
811.48	230.56
811.80	230.59
812.12	230.59
812.43	230.63
812.75	230.62
813.07	230.61
813.39	230.60
813.71	230.57
814.03	230.55
814.35	230.55
814.67	230.47
814.98	230.46
815.30	230.45
815.62	230.40
815.94	230.27
816.26	230.29
816.58	230.26
816.89	230.27
817.21	230.20
817.53	230.20
817.85	230.20
818.17	230.19
818.48	230.10
818.80	230.13
819.12	230.08
819.44	230.03
819.76	230.00
820.07	229.97
820.39	229.97
820.71	229.97
821.03	229.96
821.34	229.93
821.66	229.94
821.98	229.95
822.30	229.95
822.61	230.07
822.93	230.02
823.25	229.99
823.57	229.96
823.88	229.98
824.20	229.97
824.52	229.98
824.83	229.97
825.15	229.97
825.47	229.94
825.79	229.95
826.10	229.94
826.42	229.93
826.74	229.95
827.05	229.93
827.37	229.94
827.69	229.92
828.00	229.91
828.32	229.89
828.64	229.86
828.95	229.95
829.27	229.88
829.58	229.88
829.90	229.90
830.22	229.91
830.53	229.88
830.85	229.86
831.17	229.81
831.48	229.80
831.80	229.79
832.11	229.78
832.43	229.75
832.75	229.75
833.06	229.86
833.38	229.80
833.69	229.77
834.01	229.77
834.32	229.75
834.64	229.73
834.96	229.74
835.27	229.75
835.59	229.68
835.90	229.64
836.22	229.62
836.53	229.58
836.85	229.56
837.16	229.74
837.48	229.74
837.79	229.79
838.11	229.79
838.42	229.79
838.74	229.80
839.05	229.79
839.37	229.78
839.68	229.67
840.00	229.68
840.31	229.70
840.63	229.67
840.94	229.67
841.26	229.67
841.57	229.66
841.88	229.66
842.20	229.64
842.51	229.63
842.83	229.64
843.14	229.80
843.46	229.78
843.77	229.66
844.08	229.65
844.40	229.59
844.71	229.59
845.03	229.57
845.34	229.55
845.65	229.55
845.97	229.53
846.28	229.54
846.60	229.54
846.91	229.50
847.22	229.51
847.54	229.55
847.85	229.55
848.16	229.51
848.48	229.48
848.79	229.55
849.10	229.55
849.42	229.57
849.73	229.40
850.04	229.40
850.36	229.34
850.67	229.36
850.98	229.36
851.30	229.36
851.61	229.37
851.92	229.37
852.23	229.41
852.55	229.43
852.86	229.42
853.17	229.42
853.49	229.47
853.80	229.51
854.11	229.50
854.42	229.52
854.74	229.51
855.05	229.52
855.36	229.42
855.67	229.43
855.99	229.42
856.30	229.62
856.61	229.61
856.92	229.61
857.23	229.62
857.55	229.61
857.86	229.60
858.17	229.63
858.48	229.61
858.79	229.57
859.11	229.60
859.42	229.58
859.73	229.57
860.04	229.55
860.35	229.49
860.66	229.44
860.98	229.44
861.29	229.46
861.60	229.46
861.91	229.51
862.22	229.49
862.53	229.44
862.84	229.24
863.16	229.29
863.47	229.27
863.78	229.26
864.09	229.27
864.40	229.27
864.71	229.26
865.02	229.26
865.33	229.24
865.64	229.20
865.95	229.21
866.27	229.31
866.58	229.30
866.89	229.32
867.20	229.31
867.51	229.27
867.82	229.26
868.13	229.30
868.44	229.24
868.75	229.28
869.06	229.31
869.37	229.32
869.68	229.27
869.99	229.32
870.30	229.33
870.61	229.34
870.92	229.31
871.23	229.29
871.54	229.32
871.85	229.35
872.16	229.38
872.47	229.38
872.78	229.26
873.09	229.27
873.40	229.25
873.71	229.27
874.02	229.30
874.33	229.28
874.64	229.24
874.95	229.26
875.26	229.21
875.56	229.20
875.87	229.20
876.18	229.18
876.49	229.34
876.80	229.30
877.11	229.28
877.42	229.30
877.73	229.32
878.04	229.30
878.35	229.29
878.66	229.26
878.96	229.24
879.27	229.24
879.58	229.24
879.89	229.24
880.20	229.27
880.51	229.26
880.82	229.25
881.12	229.26
881.43	229.23
881.74	229.22
882.05	229.19
882.36	229.18
882.67	229.18
882.97	228.99
883.28	229.00
883.59	228.99
883.90	229.00
884.21	229.02
884.51	229.00
884.82	228.98
885.13	228.99
885.44	228.99
885.74	229.00
886.05	228.96
886.36	228.96
886.67	228.91
886.98	228.97
887.28	229.00
887.59	228.99
887.90	229.02
888.20	229.02
888.51	229.06
888.82	229.04
889.13	229.06
889.43	229.21
889.74	229.18
890.05	229.18
890.35	229.15
890.66	229.10
890.97	229.09
891.28	229.08
891.58	229.05
891.89	229.07
892.20	229.06
892.50	229.05
892.81	229.02
893.12	229.01
893.42	228.92
893.73	228.91
894.04	228.91
894.34	228.89
894.65	228.87
894.95	228.87
895.26	228.88
895.57	228.95
895.87	228.78
896.18	228.81
896.48	228.82
896.79	228.83
897.10	228.87
897.40	228.87
897.71	228.88
898.01	228.88
898.32	228.89
898.63	228.88
898.93	228.89
899.24	228.92
899.54	228.92
899.85	228.94
900.15	228.93
900.46	228.93
900.76	228.95
901.07	228.95
901.38	228.93
901.68	228.96
901.99	228.87
902.29	228.89
902.60	228.88
902.90	228.86
903.21	228.85
903.51	228.83
903.82	228.87
904.12	228.86
904.43	228.87
904.73	228.86
905.03	228.88
905.34	229.04
905.64	229.01
905.95	229.00
906.25	229.00
906.56	228.99
906.86	228.98
907.17	228.97
907.47	228.98
907.77	228.98
908.08	228.94
908.38	228.95
908.69	228.95
908.99	228.97
909.30	228.98
909.60	228.97
909.90	228.98
910.21	228.93
910.51	228.91
910.81	228.92
911.12	228.94
911.42	228.95
911.73	228.78
912.03	228.81
912.33	228.87
912.64	228.86
912.94	228.85
913.24	228.81
913.55	228.80
913.85	228.78
914.15	228.80
914.46	228.82
914.76	228.82
915.06	228.80
915.37	228.77
915.67	228.77
915.97	228.77
916.27	228.74
916.58	228.76
916.88	228.76
917.18	228.73
917.49	228.85
917.79	228.85
918.09	228.88
918.39	228.93
918.70	228.90
919.00	228.90
919.30	228.98
919.60	228.97
919.91	228.96
920.21	228.98
920.51	228.95
920.81	228.94
921.12	228.96
921.42	228.95
921.72	228.97
922.02	228.96
922.32	228.99
922.63	229.00
922.93	229.09
923.23	229.09
923.53	229.08
923.83	228.95
924.13	228.95
924.44	228.93
924.74	228.94
925.04	228.97
925.34	228.98
925.64	228.90
925.94	228.92
926.24	229.02
926.55	229.02
926.85	229.05
927.15	229.04
927.45	229.03
927.75	229.03
928.05	229.05
928.35	229.04
928.65	229.05
928.95	229.06
929.26	228.97
929.56	228.99
929.86	229.01
930.16	229.00
930.46	228.99
930.76	229.00
931.06	228.92
931.36	228.88
931.66	228.90
931.96	228.92
932.26	228.92
932.56	228.84
932.86	228.85
933.16	228.84
933.46	228.83
933.76	228.79
934.06	228.83
934.36	228.87
934.66	228.86
934.96	228.83
935.26	228.83
935.56	228.86
935.86	228.84
936.16	228.81
936.46	228.80
936.76	228.80
937.06	228.78
937.36	228.78
937.66	228.79
937.96	228.78
938.26	228.75
938.56	228.73
938.86	228.74
939.16	228.77
939.46	228.78
939.76	228.80
940.06	228.81
940.35	228.77
940.65	228.69
940.95	228.69
941.25	228.66
941.55	228.65
941.85	228.64
942.15	228.67
942.45	228.71
942.75	228.69
943.04	228.70
943.34	228.72
943.64	228.70
943.94	228.67
944.24	228.67
944.54	228.68
944.84	228.70
945.13	228.68
945.43	228.65
945.73	228.63
946.03	228.61
946.33	228.59
946.62	228.59
946.92	228.58
947.22	228.61
947.52	228.62
947.82	228.65
948.11	228.63
948.41	228.60
948.71	228.55
949.01	228.57
949.31	228.55
949.60	228.52
949.90	228.56
950.20	228.57
950.50	228.57
950.79	228.55
951.09	228.56
951.39	228.55
951.69	228.54
951.98	228.58
952.28	228.60
952.58	228.59
952.87	228.60
953.17	228.62
953.47	228.59
953.76	228.59
954.06	228.54
954.36	228.51
954.66	228.51
954.95	228.58
955.25	228.59
955.55	228.62
955.84	228.60
956.14	228.62
956.44	228.62
956.73	228.59
957.03	228.59
957.32	228.60
957.62	228.60
957.92	228.62
958.21	228.60
958.51	228.79
958.81	228.81
959.10	228.82
959.40	228.85
959.69	228.87
959.99	228.89
960.29	228.91
960.58	228.89
960.88	228.94
961.17	228.90
961.47	228.91
961.76	228.90
962.06	228.94
962.36	228.91
962.65	228.93
962.95	228.94
963.24	228.93
963.54	228.91
963.83	228.93
964.13	228.91
964.42	228.89
964.72	228.74
965.01	228.73
965.31	228.73
965.60	228.69
965.90	228.79
966.19	228.74
966.49	228.75
966.78	228.76
967.08	228.72
967.37	228.72
967.67	228.68
967.96	228.69
968.26	228.67
968.55	228.68
968.85	228.67
969.14	228.66
969.43	228.66
969.73	228.65
970.02	228.65
970.32	228.62
970.61	228.60
970.91	228.56
971.20	228.53
971.49	228.52
971.79	228.55
972.08	228.42
972.38	228.44
972.67	228.43
972.96	228.46
973.26	228.46
973.55	228.53
973.85	228.53
974.14	228.53
974.43	228.53
974.73	228.52
975.02	228.49
975.31	228.49
975.61	228.49
975.90	228.49
976.19	228.47
976.49	228.49
976.78	228.51
977.07	228.49
977.37	228.50
977.66	228.51
977.95	228.49
978.24	228.52
978.54	228.55
978.83	228.53
979.12	228.52
979.42	228.50
979.71	228.47
980.00	228.48
980.29	228.48
980.59	228.45
980.88	228.49
981.17	228.50
981.46	228.51
981.76	228.50
982.05	228.55
982.34	228.57
982.63	228.59
982.93	228.59
983.22	228.65
983.51	228.65
983.80	228.68
984.09	228.70
984.39	228.69
984.68	228.68
984.97	228.70
985.26	228.69
985.55	228.72
985.85	228.69
986.14	228.72
986.43	228.74
986.72	228.74
987.01	228.68
987.30	228.67
987.59	228.65
987.89	228.68
988.18	228.61
988.47	228.60
988.76	228.58
989.05	228.56
989.34	228.53
989.63	228.59
989.92	228.56
990.22	228.53
990.51	228.53
990.80	228.51
991.09	228.53
991.38	228.54
991.67	228.52
991.96	228.50
992.25	228.49
992.54	228.45
992.83	228.45
993.12	228.44
993.41	228.50
993.70	228.57
993.99	228.60
994.28	228.63
994.58	228.66
994.87	228.64
995.16	228.64
995.45	228.64
995.74	228.57
996.03	228.60
996.32	228.63
996.61	228.65
996.90	228.64
997.19	228.62
997.48	228.63
997.77	228.62
998.06	228.62
998.34	228.62
998.63	228.62
998.92	228.63
999.21	228.69
999.50	228.68
999.79	228.61
1000.08	228.59
1000.37	228.59
1000.66	228.54
1000.95	228.57
1001.24	228.59
1001.53	228.60
1001.82	228.60
1002.11	228.56
1002.40	228.57
1002.68	228.62
1002.97	228.75
1003.26	228.72
1003.55	228.69
1003.84	228.70
1004.13	228.77
1004.42	228.75
1004.71	228.75
1004.99	228.73
1005.28	228.76
1005.57	228.74
1005.86	228.74
1006.15	228.72
1006.44	228.70
1006.72	228.74
1007.01	228.71
1007.30	228.73
1007.59	228.71
1007.88	228.73
1008.17	228.74
1008.45	228.69
1008.74	228.61
1009.03	228.51
1009.32	228.52
1009.60	228.51
1009.89	228.50
1010.18	228.43
1010.47	228.45
1010.76	228.44
1011.04	228.44
1011.33	228.45
1011.62	228.45
1011.91	228.46
1012.19	228.47
1012.48	228.48
1012.77	228.48
1013.05	228.55
1013.34	228.54
1013.63	228.53
1013.92	228.53
1014.20	228.53
1014.49	228.53
1014.78	228.56
1015.06	228.52
1015.35	228.52
1015.64	228.55
1015.92	228.57
1016.21	228.58
1016.50	228.57
1016.78	228.59
1017.07	228.60
1017.36	228.55
1017.64	228.52
1017.93	228.55
1018.22	228.53
1018.50	228.50
1018.79	228.49
1019.08	228.43
1019.36	228.44
1019.65	228.43
1019.93	228.47
1020.22	228.47
1020.51	228.57
1020.79	228.55
1021.08	228.22
1021.36	227.88
1021.65	228.54
1021.94	228.53
1022.22	228.70
1022.51	228.19
1022.79	229.35
1023.08	228.40
1023.36	230.48
1023.65	228.14
>>>>>End Processed Spectral Data<<<<<
