SpectraSuite Data File
++++++++++++++++++++++++++++++++++++
Date: Tue Oct 06 12:53:55 EDT 2015
User: lab3
Dark Spectrum Present: No
Reference Spectrum Present: No
Number of Sampled Component Spectra: 1
Spectrometers: USB2E7196
Integration Time (usec): 66000 (USB2E7196)
Spectra Averaged: 1000 (USB2E7196)
Boxcar Smoothing: 10 (USB2E7196)
Correct for Electrical Dark: No (USB2E7196)
Strobe/Lamp Enabled: No (USB2E7196)
Correct for Detector Non-linearity: No (USB2E7196)
Correct for Stray Light: No (USB2E7196)
Number of Pixels in Processed Spectrum: 2048
>>>>>Begin Processed Spectral Data<<<<<
339.09	0.00
339.48	217.21
339.86	218.50
340.24	219.84
340.63	221.30
341.01	225.31
341.39	224.22
341.78	225.62
342.16	226.82
342.54	227.06
342.93	215.48
343.31	226.36
343.69	226.89
344.07	227.36
344.46	227.80
344.84	228.20
345.22	228.39
345.60	228.65
345.99	228.84
346.37	228.99
346.75	229.10
347.13	229.19
347.52	229.26
347.90	229.38
348.28	229.42
348.66	229.50
349.05	229.49
349.43	229.56
349.81	229.62
350.19	229.69
350.57	229.77
350.96	229.86
351.34	229.97
351.72	230.08
352.10	230.20
352.48	230.28
352.87	230.34
353.25	230.41
353.63	230.48
354.01	230.54
354.39	230.62
354.77	230.70
355.15	230.83
355.54	230.88
355.92	230.88
356.30	230.96
356.68	231.15
357.06	231.23
357.44	231.26
357.82	231.33
358.20	231.54
358.58	231.59
358.97	231.67
359.35	231.76
359.73	231.85
360.11	231.90
360.49	231.94
360.87	231.97
361.25	232.04
361.63	232.13
362.01	232.19
362.39	232.21
362.77	232.26
363.15	232.27
363.53	232.30
363.91	232.34
364.29	232.36
364.67	232.21
365.05	232.23
365.43	232.26
365.81	232.30
366.19	232.26
366.57	232.34
366.95	232.32
367.33	232.27
367.71	232.26
368.09	232.29
368.47	232.29
368.85	232.30
369.23	232.32
369.61	232.25
369.99	232.28
370.37	232.29
370.75	232.39
371.13	232.36
371.51	232.31
371.89	232.29
372.27	232.28
372.65	232.26
373.03	232.22
373.41	232.17
373.78	232.11
374.16	231.99
374.54	231.89
374.92	231.85
375.30	231.81
375.68	231.73
376.06	231.69
376.44	231.63
376.82	231.59
377.19	231.53
377.57	231.48
377.95	231.38
378.33	231.31
378.71	231.11
379.09	231.07
379.47	231.06
379.84	231.00
380.22	230.92
380.60	230.84
380.98	230.80
381.36	230.75
381.73	230.69
382.11	230.67
382.49	230.64
382.87	230.56
383.25	230.52
383.62	230.69
384.00	230.61
384.38	230.59
384.76	230.59
385.13	230.62
385.51	230.58
385.89	230.53
386.27	230.50
386.64	230.49
387.02	230.45
387.40	230.40
387.78	230.37
388.15	230.37
388.53	230.34
388.91	230.31
389.29	230.28
389.66	230.30
390.04	230.25
390.42	230.26
390.79	230.26
391.17	230.24
391.55	230.03
391.92	230.03
392.30	230.04
392.68	229.98
393.05	229.96
393.43	229.97
393.81	229.99
394.18	229.98
394.56	229.99
394.94	230.04
395.31	230.05
395.69	230.14
396.06	230.17
396.44	230.22
396.82	230.25
397.19	230.38
397.57	230.40
397.95	230.49
398.32	230.48
398.70	230.56
399.07	230.66
399.45	230.73
399.82	230.79
400.20	230.85
400.58	230.95
400.95	230.97
401.33	231.10
401.70	231.33
402.08	231.46
402.45	231.59
402.83	231.75
403.20	231.91
403.58	232.04
403.95	232.24
404.33	232.45
404.71	232.66
405.08	232.96
405.46	233.21
405.83	233.47
406.21	233.75
406.58	234.07
406.96	234.39
407.33	234.75
407.70	235.17
408.08	235.73
408.45	236.22
408.83	236.75
409.20	237.22
409.58	237.66
409.95	238.27
410.33	238.91
410.70	239.54
411.08	240.27
411.45	241.03
411.82	241.82
412.20	242.73
412.57	243.80
412.95	244.65
413.32	245.74
413.69	246.87
414.07	248.08
414.44	249.41
414.82	250.76
415.19	252.35
415.56	253.95
415.94	255.62
416.31	257.51
416.68	259.39
417.06	261.59
417.43	263.62
417.81	265.97
418.18	268.39
418.55	271.00
418.93	273.73
419.30	276.58
419.67	279.60
420.04	282.70
420.42	285.96
420.79	289.71
421.16	293.51
421.54	297.36
421.91	301.37
422.28	305.54
422.66	310.04
423.03	314.30
423.40	318.78
423.77	323.56
424.15	328.45
424.52	333.53
424.89	339.04
425.26	344.50
425.64	349.58
426.01	355.24
426.38	361.06
426.75	367.03
427.13	373.15
427.50	379.55
427.87	386.17
428.24	392.83
428.61	399.20
428.99	406.07
429.36	413.67
429.73	420.94
430.10	428.17
430.47	435.55
430.85	443.21
431.22	451.36
431.59	459.71
431.96	467.85
432.33	476.91
432.70	485.53
433.08	495.80
433.45	505.41
433.82	514.86
434.19	525.44
434.56	535.87
434.93	545.95
435.30	555.98
435.68	567.35
436.05	578.45
436.42	589.60
436.79	599.76
437.16	610.68
437.53	622.44
437.90	634.24
438.27	645.76
438.64	658.14
439.01	669.42
439.38	679.89
439.75	689.95
440.13	701.38
440.50	712.26
440.87	720.90
441.24	730.42
441.61	740.88
441.98	748.59
442.35	757.68
442.72	767.02
443.09	775.97
443.46	781.92
443.83	786.33
444.20	789.92
444.57	795.26
444.94	798.57
445.31	801.84
445.68	804.63
446.05	806.74
446.42	806.54
446.79	806.12
447.16	805.72
447.53	805.50
447.90	802.24
448.27	799.05
448.64	794.00
449.01	790.69
449.37	783.59
449.74	777.18
450.11	768.84
450.48	759.59
450.85	750.25
451.22	742.08
451.59	734.22
451.96	727.23
452.33	716.96
452.70	707.73
453.07	696.55
453.43	685.43
453.80	674.59
454.17	664.23
454.54	654.57
454.91	643.64
455.28	633.28
455.65	623.45
456.02	613.14
456.38	604.84
456.75	594.08
457.12	585.43
457.49	576.68
457.86	568.47
458.23	561.27
458.59	553.30
458.96	545.17
459.33	537.98
459.70	530.65
460.07	524.97
460.43	518.30
460.80	512.10
461.17	506.65
461.54	500.83
461.91	495.37
462.27	489.81
462.64	485.30
463.01	480.10
463.38	474.94
463.74	470.29
464.11	466.17
464.48	462.46
464.85	458.42
465.21	455.30
465.58	451.85
465.95	447.91
466.32	444.77
466.68	441.68
467.05	438.57
467.42	435.54
467.78	432.32
468.15	429.35
468.52	427.19
468.88	424.36
469.25	421.76
469.62	419.67
469.98	417.43
470.35	415.39
470.72	413.56
471.08	411.69
471.45	410.12
471.82	408.34
472.18	406.50
472.55	405.29
472.92	403.83
473.28	402.66
473.65	401.42
474.02	400.26
474.38	399.28
474.75	398.70
475.11	397.85
475.48	397.46
475.85	397.07
476.21	396.83
476.58	396.67
476.94	396.86
477.31	396.92
477.67	397.04
478.04	397.35
478.41	397.75
478.77	398.33
479.14	398.69
479.50	399.43
479.87	400.40
480.23	401.38
480.60	402.29
480.96	403.21
481.33	404.61
481.69	405.98
482.06	407.36
482.42	408.65
482.79	410.22
483.15	412.07
483.52	414.15
483.88	416.15
484.25	418.29
484.61	420.49
484.98	422.87
485.34	425.56
485.71	428.34
486.07	431.33
486.44	434.25
486.80	437.54
487.17	440.89
487.53	444.57
487.90	448.38
488.26	452.59
488.62	456.98
488.99	461.41
489.35	466.09
489.72	471.12
490.08	476.39
490.44	481.75
490.81	487.27
491.17	492.93
491.54	498.97
491.90	505.16
492.26	511.76
492.63	518.67
492.99	525.84
493.36	533.28
493.72	541.11
494.08	549.08
494.45	557.43
494.81	566.22
495.17	575.20
495.54	584.70
495.90	594.56
496.26	604.72
496.63	615.06
496.99	625.75
497.35	636.91
497.72	648.41
498.08	660.36
498.44	672.57
498.80	685.57
499.17	698.87
499.53	712.62
499.89	726.71
500.26	740.96
500.62	755.46
500.98	770.63
501.34	785.98
501.71	802.08
502.07	818.46
502.43	835.20
502.79	852.10
503.16	869.46
503.52	887.06
503.88	905.13
504.24	923.67
504.60	942.48
504.97	961.70
505.33	981.36
505.69	1001.96
506.05	1022.66
506.41	1043.23
506.78	1064.11
507.14	1085.82
507.50	1107.95
507.86	1130.49
508.22	1153.15
508.59	1175.66
508.95	1199.03
509.31	1222.81
509.67	1247.24
510.03	1271.53
510.39	1296.21
510.75	1320.90
511.12	1345.70
511.48	1370.49
511.84	1395.37
512.20	1420.74
512.56	1446.44
512.92	1472.00
513.28	1497.24
513.64	1522.79
514.00	1548.44
514.37	1574.29
514.73	1599.81
515.09	1624.93
515.45	1650.23
515.81	1675.64
516.17	1701.17
516.53	1725.98
516.89	1750.75
517.25	1775.62
517.61	1800.40
517.97	1825.34
518.33	1849.84
518.69	1874.21
519.05	1898.80
519.41	1923.28
519.77	1947.70
520.13	1971.86
520.49	1995.74
520.85	2019.77
521.21	2043.62
521.57	2067.61
521.93	2090.61
522.29	2114.04
522.65	2136.97
523.01	2159.77
523.37	2181.70
523.73	2204.02
524.09	2226.52
524.45	2248.99
524.81	2270.53
525.17	2291.89
525.53	2312.61
525.89	2333.64
526.25	2354.24
526.61	2373.61
526.97	2393.25
527.33	2412.27
527.68	2430.45
528.04	2448.09
528.40	2464.65
528.76	2481.72
529.12	2497.71
529.48	2514.08
529.84	2529.23
530.20	2545.34
530.56	2560.29
530.91	2575.26
531.27	2589.26
531.63	2602.30
531.99	2615.07
532.35	2626.38
532.71	2637.66
533.07	2649.23
533.42	2659.27
533.78	2670.08
534.14	2681.08
534.50	2690.65
534.86	2700.36
535.21	2708.12
535.57	2716.23
535.93	2724.64
536.29	2731.92
536.65	2739.31
537.00	2744.63
537.36	2750.35
537.72	2754.43
538.08	2758.20
538.44	2761.13
538.79	2764.44
539.15	2767.04
539.51	2769.04
539.87	2771.61
540.22	2772.21
540.58	2773.33
540.94	2773.94
541.29	2773.23
541.65	2770.97
542.01	2768.86
542.37	2765.74
542.72	2764.40
543.08	2761.51
543.44	2758.40
543.79	2753.56
544.15	2748.62
544.51	2744.42
544.87	2738.30
545.22	2731.67
545.58	2725.43
545.94	2719.88
546.29	2712.42
546.65	2704.35
547.01	2696.38
547.36	2688.01
547.72	2679.57
548.07	2669.89
548.43	2660.11
548.79	2649.19
549.14	2639.38
549.50	2629.27
549.86	2618.62
550.21	2606.15
550.57	2594.98
550.92	2582.16
551.28	2570.03
551.64	2558.16
551.99	2546.24
552.35	2534.40
552.70	2522.37
553.06	2510.57
553.41	2497.56
553.77	2484.36
554.13	2471.47
554.48	2457.66
554.84	2443.48
555.19	2430.20
555.55	2416.10
555.90	2402.19
556.26	2389.17
556.61	2375.43
556.97	2360.78
557.32	2346.40
557.68	2332.22
558.03	2317.51
558.39	2303.54
558.74	2289.80
559.10	2274.06
559.45	2259.01
559.81	2244.54
560.16	2229.74
560.52	2214.64
560.87	2200.35
561.23	2185.53
561.58	2170.98
561.94	2155.77
562.29	2140.77
562.64	2125.55
563.00	2110.57
563.35	2096.14
563.71	2081.53
564.06	2066.61
564.42	2052.14
564.77	2037.77
565.12	2023.83
565.48	2009.70
565.83	1995.26
566.19	1980.93
566.54	1967.09
566.89	1951.96
567.25	1936.45
567.60	1922.15
567.96	1907.24
568.31	1891.82
568.66	1877.28
569.02	1862.70
569.37	1848.39
569.72	1834.24
570.08	1820.13
570.43	1805.87
570.78	1790.86
571.14	1775.80
571.49	1761.07
571.84	1747.17
572.20	1731.94
572.55	1716.95
572.90	1701.44
573.26	1686.03
573.61	1670.37
573.96	1655.32
574.31	1640.91
574.67	1627.03
575.02	1612.19
575.37	1597.07
575.72	1581.85
576.08	1567.05
576.43	1552.33
576.78	1537.62
577.13	1523.03
577.49	1508.36
577.84	1493.66
578.19	1479.16
578.54	1464.75
578.90	1450.22
579.25	1435.22
579.60	1421.39
579.95	1407.48
580.30	1393.79
580.66	1380.13
581.01	1366.64
581.36	1352.97
581.71	1339.28
582.06	1325.58
582.42	1312.14
582.77	1299.11
583.12	1286.27
583.47	1273.29
583.82	1260.46
584.17	1247.57
584.53	1234.80
584.88	1222.41
585.23	1209.75
585.58	1197.39
585.93	1185.04
586.28	1173.30
586.63	1161.46
586.98	1149.51
587.34	1137.85
587.69	1126.04
588.04	1114.58
588.39	1103.25
588.74	1091.83
589.09	1080.81
589.44	1069.27
589.79	1058.25
590.14	1047.36
590.49	1036.68
590.84	1026.19
591.19	1015.75
591.54	1005.41
591.89	994.78
592.25	984.20
592.60	973.71
592.95	963.43
593.30	953.19
593.65	942.90
594.00	932.85
594.35	923.48
594.70	913.66
595.05	904.48
595.40	895.13
595.75	885.62
596.10	876.60
596.45	867.44
596.80	858.66
597.15	849.94
597.50	841.20
597.85	832.78
598.19	824.33
598.54	815.87
598.89	807.56
599.24	799.70
599.59	791.93
599.94	784.60
600.29	777.06
600.64	769.64
600.99	762.16
601.34	754.89
601.69	747.03
602.04	739.81
602.39	732.70
602.74	725.76
603.08	718.93
603.43	712.13
603.78	705.45
604.13	698.90
604.48	692.29
604.83	685.95
605.18	679.60
605.53	673.34
605.87	666.99
606.22	660.92
606.57	654.78
606.92	648.55
607.27	642.46
607.62	636.73
607.96	631.07
608.31	625.70
608.66	620.18
609.01	614.97
609.36	609.94
609.70	604.78
610.05	599.60
610.40	594.57
610.75	589.46
611.10	584.66
611.44	579.82
611.79	575.09
612.14	570.32
612.49	565.53
612.83	561.01
613.18	556.70
613.53	552.40
613.88	548.11
614.22	544.04
614.57	539.86
614.92	535.70
615.27	531.70
615.61	527.71
615.96	523.84
616.31	519.95
616.65	516.03
617.00	512.25
617.35	508.56
617.70	504.98
618.04	501.55
618.39	498.01
618.74	494.65
619.08	491.21
619.43	487.86
619.78	484.66
620.12	481.46
620.47	478.42
620.82	475.35
621.16	472.38
621.51	469.53
621.85	466.74
622.20	464.03
622.55	461.26
622.89	458.54
623.24	455.96
623.59	453.42
623.93	450.94
624.28	448.54
624.62	446.35
624.97	444.12
625.32	441.73
625.66	439.37
626.01	437.05
626.35	434.94
626.70	432.75
627.04	430.75
627.39	428.61
627.73	426.56
628.08	424.61
628.43	422.68
628.77	420.75
629.12	418.90
629.46	417.00
629.81	415.27
630.15	413.46
630.50	411.65
630.84	409.94
631.19	408.30
631.53	406.67
631.88	404.89
632.22	403.19
632.57	401.84
632.91	400.45
633.26	399.09
633.60	397.68
633.95	396.37
634.29	394.89
634.64	393.53
634.98	392.04
635.32	390.70
635.67	389.47
636.01	388.20
636.36	386.97
636.70	385.90
637.05	384.66
637.39	383.56
637.73	382.46
638.08	381.40
638.42	380.34
638.77	379.18
639.11	378.00
639.45	376.90
639.80	375.74
640.14	374.62
640.49	373.48
640.83	372.39
641.17	371.29
641.52	370.25
641.86	369.26
642.20	368.43
642.55	367.40
642.89	366.39
643.23	365.39
643.58	364.52
643.92	363.49
644.26	362.53
644.61	361.62
644.95	360.72
645.29	359.78
645.64	358.80
645.98	357.90
646.32	357.09
646.66	356.19
647.01	355.30
647.35	354.50
647.69	353.69
648.04	352.90
648.38	352.10
648.72	351.34
649.06	350.58
649.41	349.75
649.75	349.00
650.09	348.28
650.43	347.57
650.78	346.79
651.12	346.06
651.46	345.36
651.80	344.65
652.14	343.94
652.49	343.27
652.83	342.58
653.17	341.90
653.51	341.25
653.85	340.67
654.20	340.06
654.54	339.34
654.88	338.70
655.22	338.08
655.56	337.38
655.90	336.69
656.25	336.03
656.59	335.40
656.93	334.82
657.27	334.27
657.61	333.62
657.95	333.05
658.29	332.46
658.64	331.95
658.98	331.37
659.32	330.77
659.66	330.21
660.00	329.67
660.34	329.11
660.68	328.53
661.02	327.89
661.36	327.31
661.70	326.77
662.05	326.24
662.39	325.74
662.73	325.32
663.07	324.93
663.41	324.46
663.75	323.92
664.09	323.40
664.43	322.80
664.77	322.30
665.11	321.72
665.45	321.19
665.79	320.65
666.13	320.11
666.47	319.59
666.81	319.03
667.15	318.44
667.49	317.98
667.83	317.56
668.17	317.11
668.51	316.66
668.85	316.22
669.19	315.84
669.53	315.31
669.87	314.82
670.21	314.31
670.55	313.84
670.89	313.51
671.23	313.08
671.57	312.66
671.91	312.30
672.25	311.93
672.58	311.57
672.92	311.11
673.26	310.73
673.60	310.33
673.94	309.95
674.28	309.61
674.62	309.22
674.96	308.76
675.30	308.35
675.64	307.93
675.97	307.51
676.31	307.02
676.65	306.61
676.99	306.25
677.33	305.78
677.67	305.36
678.01	304.81
678.34	304.36
678.68	303.95
679.02	303.46
679.36	303.03
679.70	302.55
680.04	302.14
680.37	301.70
680.71	301.28
681.05	300.89
681.39	300.45
681.73	299.98
682.06	299.53
682.40	299.11
682.74	298.74
683.08	298.39
683.42	297.94
683.75	297.53
684.09	297.01
684.43	296.57
684.77	296.13
685.10	295.77
685.44	295.40
685.78	294.98
686.12	294.59
686.45	294.15
686.79	293.70
687.13	293.28
687.46	292.84
687.80	292.41
688.14	291.91
688.48	291.48
688.81	291.07
689.15	290.72
689.49	290.25
689.82	289.79
690.16	289.26
690.50	288.85
690.83	288.42
691.17	287.97
691.51	287.56
691.84	287.18
692.18	286.73
692.52	286.25
692.85	285.82
693.19	285.46
693.52	285.07
693.86	284.67
694.20	284.26
694.53	283.86
694.87	283.41
695.21	283.00
695.54	282.58
695.88	282.12
696.21	281.63
696.55	281.22
696.88	280.80
697.22	280.39
697.56	280.00
697.89	279.55
698.23	279.15
698.56	278.71
698.90	278.30
699.23	277.87
699.57	277.48
699.90	277.05
700.24	276.56
700.58	276.17
700.91	275.80
701.25	275.56
701.58	275.24
701.92	274.92
702.25	274.56
702.59	274.17
702.92	273.78
703.26	273.41
703.59	273.01
703.93	272.77
704.26	272.40
704.60	272.01
704.93	271.61
705.26	271.21
705.60	270.88
705.93	270.44
706.27	270.12
706.60	269.79
706.94	269.47
707.27	269.08
707.61	268.71
707.94	268.32
708.27	267.80
708.61	267.36
708.94	266.96
709.28	266.59
709.61	266.24
709.94	265.94
710.28	265.63
710.61	265.34
710.95	264.88
711.28	264.67
711.61	264.35
711.95	264.08
712.28	263.77
712.61	263.42
712.95	263.20
713.28	262.96
713.61	262.59
713.95	262.23
714.28	261.95
714.61	261.62
714.95	261.31
715.28	261.00
715.61	260.71
715.95	260.44
716.28	260.12
716.61	259.85
716.95	259.51
717.28	259.20
717.61	258.87
717.94	258.57
718.28	258.17
718.61	257.88
718.94	257.57
719.27	257.30
719.61	257.05
719.94	256.76
720.27	256.40
720.60	256.16
720.94	255.90
721.27	255.66
721.60	255.44
721.93	255.18
722.27	254.99
722.60	254.77
722.93	254.51
723.26	254.30
723.59	254.05
723.93	253.86
724.26	253.64
724.59	253.42
724.92	253.21
725.25	253.03
725.59	252.81
725.92	252.63
726.25	252.42
726.58	252.21
726.91	251.97
727.24	251.76
727.57	251.51
727.91	251.29
728.24	251.10
728.57	250.87
728.90	250.70
729.23	250.42
729.56	250.30
729.89	250.09
730.22	249.88
730.55	249.68
730.89	249.47
731.22	249.25
731.55	249.06
731.88	248.87
732.21	248.65
732.54	248.45
732.87	248.26
733.20	248.06
733.53	247.88
733.86	247.72
734.19	247.54
734.52	247.41
734.85	247.37
735.18	247.16
735.51	247.05
735.84	246.88
736.17	246.76
736.50	246.50
736.83	246.52
737.16	246.36
737.49	246.20
737.82	246.04
738.15	245.90
738.48	245.74
738.81	245.56
739.14	245.39
739.47	245.23
739.80	245.07
740.13	244.93
740.46	244.76
740.79	244.58
741.12	244.41
741.45	244.23
741.78	243.98
742.11	243.89
742.44	243.69
742.77	243.56
743.10	243.39
743.43	243.24
743.75	242.92
744.08	243.04
744.41	242.89
744.74	242.75
745.07	242.57
745.40	242.47
745.73	242.42
746.06	242.29
746.39	242.19
746.71	242.04
747.04	241.90
747.37	241.77
747.70	241.66
748.03	241.54
748.36	241.45
748.68	241.33
749.01	241.16
749.34	241.04
749.67	240.93
750.00	240.85
750.33	240.86
750.65	240.77
750.98	240.39
751.31	240.30
751.64	240.20
751.97	240.19
752.29	240.06
752.62	239.86
752.95	239.74
753.28	239.58
753.60	239.46
753.93	239.39
754.26	239.30
754.59	239.15
754.91	239.02
755.24	238.88
755.57	238.78
755.90	238.66
756.22	238.54
756.55	238.41
756.88	238.28
757.20	238.05
757.53	237.90
757.86	237.82
758.19	237.72
758.51	237.62
758.84	237.44
759.17	237.34
759.49	237.26
759.82	237.26
760.15	237.20
760.47	237.12
760.80	236.98
761.13	236.93
761.45	236.84
761.78	236.77
762.11	236.71
762.43	236.60
762.76	236.51
763.08	236.46
763.41	236.39
763.74	236.32
764.06	236.24
764.39	236.17
764.71	236.09
765.04	235.99
765.37	235.90
765.69	235.82
766.02	235.75
766.34	235.67
766.67	235.52
767.00	235.47
767.32	235.50
767.65	235.54
767.97	235.46
768.30	235.41
768.62	235.34
768.95	235.25
769.27	235.19
769.60	235.16
769.92	235.07
770.25	234.97
770.57	234.88
770.90	234.82
771.22	234.75
771.55	234.70
771.87	234.66
772.20	234.62
772.52	234.72
772.85	234.87
773.17	234.82
773.50	234.78
773.82	234.70
774.15	234.55
774.47	234.38
774.80	234.30
775.12	234.25
775.45	234.20
775.77	234.18
776.09	234.14
776.42	234.09
776.74	234.10
777.07	234.07
777.39	234.03
777.72	233.98
778.04	233.97
778.36	233.90
778.69	233.85
779.01	233.81
779.33	233.61
779.66	233.37
779.98	233.31
780.31	233.28
780.63	233.32
780.95	233.32
781.28	233.29
781.60	233.25
781.92	233.21
782.25	233.18
782.57	233.13
782.89	233.09
783.22	233.05
783.54	232.97
783.86	232.96
784.19	232.91
784.51	232.94
784.83	232.87
785.16	232.85
785.48	232.82
785.80	232.79
786.12	232.77
786.45	232.75
786.77	232.74
787.09	232.70
787.42	232.60
787.74	232.56
788.06	232.55
788.38	232.53
788.71	232.49
789.03	232.46
789.35	232.45
789.67	232.40
789.99	232.38
790.32	232.34
790.64	232.31
790.96	232.45
791.28	232.37
791.61	232.34
791.93	232.33
792.25	232.30
792.57	232.40
792.89	232.35
793.21	232.34
793.54	232.28
793.86	232.24
794.18	232.22
794.50	232.17
794.82	232.14
795.14	232.14
795.47	232.16
795.79	232.14
796.11	232.08
796.43	232.05
796.75	232.04
797.07	232.02
797.39	232.00
797.71	231.84
798.04	231.83
798.36	231.82
798.68	231.80
799.00	231.79
799.32	231.66
799.64	231.68
799.96	231.64
800.28	231.67
800.60	231.65
800.92	231.64
801.24	231.61
801.56	231.61
801.89	231.58
802.21	231.56
802.53	231.53
802.85	231.55
803.17	231.61
803.49	231.55
803.81	231.51
804.13	231.48
804.45	231.45
804.77	231.45
805.09	231.43
805.41	231.39
805.73	231.35
806.05	231.30
806.37	231.26
806.69	231.24
807.01	231.20
807.33	231.20
807.65	231.13
807.97	231.19
808.28	231.15
808.60	231.14
808.92	231.10
809.24	231.19
809.56	231.14
809.88	231.07
810.20	231.06
810.52	231.08
810.84	231.04
811.16	231.01
811.48	230.97
811.80	231.02
812.12	231.00
812.43	231.01
812.75	231.02
813.07	230.98
813.39	230.97
813.71	230.92
814.03	230.90
814.35	230.88
814.67	230.80
814.98	230.77
815.30	230.75
815.62	230.72
815.94	230.59
816.26	230.59
816.58	230.54
816.89	230.56
817.21	230.52
817.53	230.53
817.85	230.52
818.17	230.51
818.48	230.42
818.80	230.45
819.12	230.41
819.44	230.38
819.76	230.36
820.07	230.34
820.39	230.34
820.71	230.35
821.03	230.36
821.34	230.34
821.66	230.36
821.98	230.36
822.30	230.35
822.61	230.46
822.93	230.42
823.25	230.42
823.57	230.39
823.88	230.41
824.20	230.40
824.52	230.42
824.83	230.41
825.15	230.39
825.47	230.37
825.79	230.38
826.10	230.36
826.42	230.34
826.74	230.35
827.05	230.35
827.37	230.33
827.69	230.31
828.00	230.31
828.32	230.29
828.64	230.27
828.95	230.35
829.27	230.28
829.58	230.28
829.90	230.31
830.22	230.31
830.53	230.27
830.85	230.24
831.17	230.18
831.48	230.18
831.80	230.18
832.11	230.16
832.43	230.12
832.75	230.12
833.06	230.22
833.38	230.17
833.69	230.15
834.01	230.14
834.32	230.13
834.64	230.11
834.96	230.11
835.27	230.10
835.59	230.03
835.90	230.00
836.22	229.98
836.53	229.94
836.85	229.90
837.16	230.07
837.48	230.07
837.79	230.13
838.11	230.12
838.42	230.11
838.74	230.12
839.05	230.11
839.37	230.10
839.68	229.99
840.00	229.99
840.31	230.01
840.63	229.99
840.94	229.97
841.26	229.95
841.57	229.95
841.88	229.95
842.20	229.93
842.51	229.90
842.83	229.91
843.14	230.05
843.46	230.04
843.77	229.93
844.08	229.92
844.40	229.86
844.71	229.83
845.03	229.82
845.34	229.80
845.65	229.79
845.97	229.80
846.28	229.80
846.60	229.81
846.91	229.78
847.22	229.78
847.54	229.82
847.85	229.83
848.16	229.80
848.48	229.77
848.79	229.84
849.10	229.85
849.42	229.86
849.73	229.69
850.04	229.69
850.36	229.63
850.67	229.65
850.98	229.66
851.30	229.68
851.61	229.67
851.92	229.66
852.23	229.70
852.55	229.70
852.86	229.71
853.17	229.72
853.49	229.74
853.80	229.76
854.11	229.76
854.42	229.78
854.74	229.76
855.05	229.76
855.36	229.67
855.67	229.67
855.99	229.66
856.30	229.87
856.61	229.86
856.92	229.87
857.23	229.88
857.55	229.85
857.86	229.84
858.17	229.86
858.48	229.84
858.79	229.80
859.11	229.82
859.42	229.79
859.73	229.75
860.04	229.75
860.35	229.70
860.66	229.65
860.98	229.64
861.29	229.67
861.60	229.66
861.91	229.70
862.22	229.66
862.53	229.63
862.84	229.43
863.16	229.47
863.47	229.44
863.78	229.41
864.09	229.42
864.40	229.43
864.71	229.42
865.02	229.45
865.33	229.43
865.64	229.40
865.95	229.41
866.27	229.51
866.58	229.49
866.89	229.51
867.20	229.51
867.51	229.48
867.82	229.46
868.13	229.51
868.44	229.47
868.75	229.51
869.06	229.51
869.37	229.52
869.68	229.47
869.99	229.51
870.30	229.52
870.61	229.53
870.92	229.50
871.23	229.48
871.54	229.51
871.85	229.55
872.16	229.58
872.47	229.56
872.78	229.45
873.09	229.47
873.40	229.46
873.71	229.47
874.02	229.48
874.33	229.46
874.64	229.43
874.95	229.47
875.26	229.43
875.56	229.43
875.87	229.42
876.18	229.42
876.49	229.58
876.80	229.56
877.11	229.54
877.42	229.55
877.73	229.56
878.04	229.51
878.35	229.50
878.66	229.49
878.96	229.49
879.27	229.48
879.58	229.47
879.89	229.46
880.20	229.51
880.51	229.49
880.82	229.50
881.12	229.51
881.43	229.48
881.74	229.46
882.05	229.44
882.36	229.45
882.67	229.47
882.97	229.28
883.28	229.27
883.59	229.26
883.90	229.27
884.21	229.29
884.51	229.29
884.82	229.27
885.13	229.27
885.44	229.27
885.74	229.28
886.05	229.26
886.36	229.27
886.67	229.20
886.98	229.29
887.28	229.31
887.59	229.30
887.90	229.30
888.20	229.30
888.51	229.33
888.82	229.31
889.13	229.31
889.43	229.47
889.74	229.45
890.05	229.46
890.35	229.43
890.66	229.39
890.97	229.37
891.28	229.36
891.58	229.37
891.89	229.36
892.20	229.34
892.50	229.33
892.81	229.32
893.12	229.33
893.42	229.23
893.73	229.22
894.04	229.23
894.34	229.24
894.65	229.23
894.95	229.21
895.26	229.21
895.57	229.27
895.87	229.09
896.18	229.11
896.48	229.12
896.79	229.13
897.10	229.16
897.40	229.17
897.71	229.19
898.01	229.16
898.32	229.19
898.63	229.18
898.93	229.18
899.24	229.18
899.54	229.17
899.85	229.17
900.15	229.17
900.46	229.16
900.76	229.17
901.07	229.18
901.38	229.17
901.68	229.20
901.99	229.12
902.29	229.14
902.60	229.12
902.90	229.10
903.21	229.11
903.51	229.09
903.82	229.13
904.12	229.13
904.43	229.14
904.73	229.13
905.03	229.14
905.34	229.32
905.64	229.32
905.95	229.31
906.25	229.30
906.56	229.29
906.86	229.29
907.17	229.26
907.47	229.27
907.77	229.25
908.08	229.21
908.38	229.22
908.69	229.23
908.99	229.27
909.30	229.29
909.60	229.27
909.90	229.28
910.21	229.21
910.51	229.19
910.81	229.19
911.12	229.20
911.42	229.20
911.73	229.02
912.03	229.03
912.33	229.06
912.64	229.07
912.94	229.04
913.24	229.02
913.55	229.00
913.85	229.00
914.15	229.04
914.46	229.07
914.76	229.05
915.06	229.05
915.37	229.01
915.67	228.99
915.97	228.99
916.27	228.96
916.58	228.99
916.88	228.98
917.18	228.96
917.49	229.08
917.79	229.08
918.09	229.11
918.39	229.15
918.70	229.13
919.00	229.14
919.30	229.23
919.60	229.22
919.91	229.20
920.21	229.20
920.51	229.18
920.81	229.16
921.12	229.19
921.42	229.17
921.72	229.19
922.02	229.21
922.32	229.23
922.63	229.24
922.93	229.33
923.23	229.34
923.53	229.32
923.83	229.20
924.13	229.21
924.44	229.20
924.74	229.22
925.04	229.25
925.34	229.25
925.64	229.17
925.94	229.18
926.24	229.29
926.55	229.28
926.85	229.29
927.15	229.30
927.45	229.29
927.75	229.30
928.05	229.29
928.35	229.28
928.65	229.31
928.95	229.32
929.26	229.24
929.56	229.29
929.86	229.31
930.16	229.29
930.46	229.27
930.76	229.28
931.06	229.19
931.36	229.15
931.66	229.18
931.96	229.22
932.26	229.22
932.56	229.15
932.86	229.15
933.16	229.17
933.46	229.14
933.76	229.11
934.06	229.15
934.36	229.21
934.66	229.21
934.96	229.18
935.26	229.19
935.56	229.21
935.86	229.17
936.16	229.14
936.46	229.13
936.76	229.12
937.06	229.10
937.36	229.11
937.66	229.12
937.96	229.11
938.26	229.06
938.56	229.05
938.86	229.05
939.16	229.10
939.46	229.10
939.76	229.12
940.06	229.11
940.35	229.08
940.65	228.98
940.95	229.00
941.25	228.95
941.55	228.92
941.85	228.90
942.15	228.93
942.45	228.97
942.75	228.99
943.04	228.99
943.34	229.03
943.64	229.01
943.94	228.99
944.24	228.98
944.54	228.99
944.84	228.99
945.13	228.98
945.43	228.94
945.73	228.93
946.03	228.92
946.33	228.91
946.62	228.90
946.92	228.90
947.22	228.91
947.52	228.92
947.82	228.95
948.11	228.93
948.41	228.90
948.71	228.85
949.01	228.86
949.31	228.85
949.60	228.83
949.90	228.86
950.20	228.85
950.50	228.85
950.79	228.83
951.09	228.86
951.39	228.85
951.69	228.84
951.98	228.87
952.28	228.87
952.58	228.86
952.87	228.87
953.17	228.90
953.47	228.88
953.76	228.88
954.06	228.85
954.36	228.83
954.66	228.82
954.95	228.87
955.25	228.88
955.55	228.89
955.84	228.87
956.14	228.88
956.44	228.89
956.73	228.87
957.03	228.89
957.32	228.89
957.62	228.89
957.92	228.92
958.21	228.89
958.51	229.09
958.81	229.11
959.10	229.13
959.40	229.16
959.69	229.16
959.99	229.18
960.29	229.19
960.58	229.19
960.88	229.26
961.17	229.25
961.47	229.26
961.76	229.23
962.06	229.25
962.36	229.22
962.65	229.24
962.95	229.24
963.24	229.22
963.54	229.22
963.83	229.23
964.13	229.22
964.42	229.21
964.72	229.06
965.01	229.06
965.31	229.06
965.60	229.01
965.90	229.13
966.19	229.08
966.49	229.09
966.78	229.10
967.08	229.08
967.37	229.07
967.67	229.04
967.96	229.08
968.26	229.07
968.55	229.10
968.85	229.09
969.14	229.09
969.43	229.10
969.73	229.08
970.02	229.07
970.32	229.06
970.61	229.03
970.91	228.98
971.20	228.96
971.49	228.94
971.79	228.96
972.08	228.83
972.38	228.85
972.67	228.84
972.96	228.86
973.26	228.83
973.55	228.88
973.85	228.88
974.14	228.87
974.43	228.88
974.73	228.84
975.02	228.83
975.31	228.83
975.61	228.82
975.90	228.80
976.19	228.79
976.49	228.81
976.78	228.82
977.07	228.82
977.37	228.83
977.66	228.83
977.95	228.81
978.24	228.82
978.54	228.85
978.83	228.84
979.12	228.81
979.42	228.82
979.71	228.77
980.00	228.76
980.29	228.77
980.59	228.75
980.88	228.78
981.17	228.78
981.46	228.78
981.76	228.78
982.05	228.83
982.34	228.85
982.63	228.86
982.93	228.86
983.22	228.91
983.51	228.90
983.80	228.94
984.09	228.97
984.39	228.97
984.68	228.94
984.97	228.95
985.26	228.95
985.55	228.96
985.85	228.93
986.14	228.97
986.43	228.99
986.72	228.97
987.01	228.93
987.30	228.94
987.59	228.93
987.89	228.95
988.18	228.90
988.47	228.87
988.76	228.85
989.05	228.84
989.34	228.81
989.63	228.85
989.92	228.81
990.22	228.78
990.51	228.77
990.80	228.75
991.09	228.76
991.38	228.78
991.67	228.76
991.96	228.76
992.25	228.76
992.54	228.73
992.83	228.76
993.12	228.74
993.41	228.77
993.70	228.84
993.99	228.86
994.28	228.89
994.58	228.92
994.87	228.91
995.16	228.91
995.45	228.90
995.74	228.83
996.03	228.87
996.32	228.90
996.61	228.94
996.90	228.96
997.19	228.95
997.48	228.96
997.77	228.95
998.06	228.96
998.34	228.94
998.63	228.93
998.92	228.93
999.21	228.97
999.50	228.96
999.79	228.90
1000.08	228.89
1000.37	228.89
1000.66	228.87
1000.95	228.93
1001.24	228.94
1001.53	228.97
1001.82	228.98
1002.11	228.94
1002.40	228.95
1002.68	228.98
1002.97	229.11
1003.26	229.09
1003.55	229.07
1003.84	229.07
1004.13	229.13
1004.42	229.12
1004.71	229.13
1004.99	229.12
1005.28	229.16
1005.57	229.15
1005.86	229.13
1006.15	229.12
1006.44	229.10
1006.72	229.12
1007.01	229.08
1007.30	229.07
1007.59	229.04
1007.88	229.04
1008.17	229.06
1008.45	229.02
1008.74	228.95
1009.03	228.86
1009.32	228.87
1009.60	228.87
1009.89	228.86
1010.18	228.78
1010.47	228.76
1010.76	228.76
1011.04	228.76
1011.33	228.74
1011.62	228.76
1011.91	228.78
1012.19	228.79
1012.48	228.79
1012.77	228.79
1013.05	228.86
1013.34	228.86
1013.63	228.85
1013.92	228.87
1014.20	228.87
1014.49	228.88
1014.78	228.90
1015.06	228.84
1015.35	228.83
1015.64	228.86
1015.92	228.88
1016.21	228.90
1016.50	228.90
1016.78	228.93
1017.07	228.95
1017.36	228.92
1017.64	228.88
1017.93	228.90
1018.22	228.87
1018.50	228.86
1018.79	228.85
1019.08	228.79
1019.36	228.80
1019.65	228.79
1019.93	228.82
1020.22	228.84
1020.51	228.93
1020.79	228.90
1021.08	228.56
1021.36	228.52
1021.65	228.73
1021.94	228.88
1022.22	228.98
1022.51	228.40
1022.79	229.49
1023.08	229.19
1023.36	230.91
1023.65	228.40
>>>>>End Processed Spectral Data<<<<<
