SpectraSuite Data File
++++++++++++++++++++++++++++++++++++
Date: Tue Oct 06 14:52:11 EDT 2015
User: lab3
Dark Spectrum Present: No
Reference Spectrum Present: No
Number of Sampled Component Spectra: 1
Spectrometers: USB2E7196
Integration Time (usec): 66000 (USB2E7196)
Spectra Averaged: 1000 (USB2E7196)
Boxcar Smoothing: 10 (USB2E7196)
Correct for Electrical Dark: No (USB2E7196)
Strobe/Lamp Enabled: No (USB2E7196)
Correct for Detector Non-linearity: No (USB2E7196)
Correct for Stray Light: No (USB2E7196)
Number of Pixels in Processed Spectrum: 2048
>>>>>Begin Processed Spectral Data<<<<<
339.09	0.00
339.48	214.94
339.86	216.38
340.24	217.78
340.63	219.24
341.01	223.20
341.39	221.88
341.78	223.38
342.16	224.74
342.54	224.83
342.93	213.40
343.31	224.17
343.69	224.70
344.07	225.16
344.46	225.59
344.84	225.99
345.22	226.18
345.60	226.46
345.99	226.66
346.37	226.79
346.75	226.91
347.13	226.99
347.52	227.08
347.90	227.19
348.28	227.24
348.66	227.32
349.05	227.30
349.43	227.38
349.81	227.44
350.19	227.50
350.57	227.58
350.96	227.68
351.34	227.79
351.72	227.89
352.10	228.01
352.48	228.08
352.87	228.13
353.25	228.19
353.63	228.24
354.01	228.29
354.39	228.36
354.77	228.43
355.15	228.56
355.54	228.59
355.92	228.60
356.30	228.67
356.68	228.86
357.06	228.93
357.44	228.97
357.82	229.04
358.20	229.26
358.58	229.33
358.97	229.40
359.35	229.49
359.73	229.59
360.11	229.63
360.49	229.69
360.87	229.75
361.25	229.83
361.63	229.94
362.01	230.00
362.39	230.03
362.77	230.09
363.15	230.11
363.53	230.15
363.91	230.19
364.29	230.21
364.67	230.06
365.05	230.10
365.43	230.14
365.81	230.17
366.19	230.12
366.57	230.19
366.95	230.19
367.33	230.15
367.71	230.15
368.09	230.19
368.47	230.20
368.85	230.19
369.23	230.22
369.61	230.15
369.99	230.19
370.37	230.21
370.75	230.32
371.13	230.30
371.51	230.25
371.89	230.24
372.27	230.23
372.65	230.22
373.03	230.17
373.41	230.13
373.78	230.08
374.16	229.96
374.54	229.87
374.92	229.82
375.30	229.78
375.68	229.69
376.06	229.66
376.44	229.60
376.82	229.56
377.19	229.51
377.57	229.47
377.95	229.36
378.33	229.29
378.71	229.09
379.09	229.03
379.47	229.02
379.84	228.95
380.22	228.88
380.60	228.81
380.98	228.77
381.36	228.72
381.73	228.66
382.11	228.66
382.49	228.61
382.87	228.54
383.25	228.50
383.62	228.67
384.00	228.58
384.38	228.54
384.76	228.54
385.13	228.55
385.51	228.51
385.89	228.45
386.27	228.43
386.64	228.43
387.02	228.39
387.40	228.34
387.78	228.33
388.15	228.30
388.53	228.28
388.91	228.25
389.29	228.21
389.66	228.22
390.04	228.17
390.42	228.19
390.79	228.19
391.17	228.18
391.55	227.98
391.92	227.98
392.30	228.01
392.68	227.96
393.05	227.94
393.43	227.96
393.81	227.98
394.18	227.95
394.56	227.96
394.94	228.02
395.31	228.01
395.69	228.09
396.06	228.12
396.44	228.17
396.82	228.19
397.19	228.33
397.57	228.34
397.95	228.42
398.32	228.41
398.70	228.49
399.07	228.58
399.45	228.62
399.82	228.70
400.20	228.74
400.58	228.84
400.95	228.86
401.33	228.99
401.70	229.20
402.08	229.35
402.45	229.47
402.83	229.64
403.20	229.82
403.58	229.96
403.95	230.17
404.33	230.40
404.71	230.62
405.08	230.92
405.46	231.17
405.83	231.45
406.21	231.75
406.58	232.08
406.96	232.42
407.33	232.80
407.70	233.23
408.08	233.82
408.45	234.32
408.83	234.87
409.20	235.38
409.58	235.85
409.95	236.48
410.33	237.16
410.70	237.80
411.08	238.56
411.45	239.36
411.82	240.18
412.20	241.11
412.57	242.21
412.95	243.10
413.32	244.24
413.69	245.42
414.07	246.67
414.44	248.06
414.82	249.46
415.19	251.11
415.56	252.77
415.94	254.51
416.31	256.45
416.68	258.43
417.06	260.69
417.43	262.80
417.81	265.24
418.18	267.74
418.55	270.47
418.93	273.31
419.30	276.26
419.67	279.40
420.04	282.63
420.42	286.02
420.79	289.91
421.16	293.85
421.54	297.83
421.91	302.00
422.28	306.33
422.66	310.98
423.03	315.41
423.40	320.07
423.77	325.04
424.15	330.11
424.52	335.37
424.89	341.09
425.26	346.76
425.64	352.01
426.01	357.92
426.38	363.97
426.75	370.15
427.13	376.49
427.50	383.12
427.87	389.95
428.24	396.83
428.61	403.43
428.99	410.56
429.36	418.42
429.73	425.92
430.10	433.37
430.47	441.01
430.85	448.92
431.22	457.34
431.59	465.99
431.96	474.41
432.33	483.81
432.70	492.74
433.08	503.35
433.45	513.35
433.82	523.16
434.19	534.12
434.56	544.95
434.93	555.45
435.30	565.86
435.68	577.72
436.05	589.30
436.42	600.90
436.79	611.51
437.16	622.94
437.53	635.27
437.90	647.62
438.27	659.69
438.64	672.62
439.01	684.44
439.38	695.37
439.75	705.90
440.13	717.86
440.50	729.26
440.87	738.36
441.24	748.31
441.61	759.23
441.98	767.32
442.35	776.84
442.72	786.59
443.09	795.97
443.46	802.18
443.83	806.82
444.20	810.62
444.57	816.18
444.94	819.62
445.31	823.01
445.68	825.93
446.05	828.13
446.42	827.94
446.79	827.52
447.16	827.14
447.53	826.92
447.90	823.54
448.27	820.19
448.64	814.92
449.01	811.43
449.37	804.04
449.74	797.37
450.11	788.72
450.48	779.11
450.85	769.40
451.22	760.98
451.59	752.79
451.96	745.50
452.33	734.81
452.70	725.22
453.07	713.61
453.43	702.06
453.80	690.79
454.17	680.02
454.54	669.97
454.91	658.59
455.28	647.79
455.65	637.53
456.02	626.80
456.38	618.17
456.75	606.99
457.12	597.98
457.49	588.83
457.86	580.25
458.23	572.75
458.59	564.40
458.96	555.86
459.33	548.35
459.70	540.69
460.07	534.76
460.43	527.79
460.80	521.29
461.17	515.59
461.54	509.52
461.91	503.79
462.27	497.97
462.64	493.22
463.01	487.80
463.38	482.46
463.74	477.57
464.11	473.23
464.48	469.36
464.85	465.13
465.21	461.89
465.58	458.26
465.95	454.13
466.32	450.85
466.68	447.63
467.05	444.38
467.42	441.21
467.78	437.85
468.15	434.75
468.52	432.47
468.88	429.48
469.25	426.73
469.62	424.56
469.98	422.18
470.35	420.05
470.72	418.13
471.08	416.15
471.45	414.50
471.82	412.65
472.18	410.71
472.55	409.46
472.92	407.92
473.28	406.68
473.65	405.36
474.02	404.17
474.38	403.14
474.75	402.51
475.11	401.64
475.48	401.21
475.85	400.78
476.21	400.54
476.58	400.35
476.94	400.52
477.31	400.55
477.67	400.67
478.04	400.95
478.41	401.34
478.77	401.93
479.14	402.27
479.50	403.01
479.87	403.98
480.23	404.95
480.60	405.87
480.96	406.82
481.33	408.25
481.69	409.61
482.06	410.99
482.42	412.29
482.79	413.86
483.15	415.72
483.52	417.83
483.88	419.84
484.25	422.00
484.61	424.24
484.98	426.63
485.34	429.33
485.71	432.16
486.07	435.16
486.44	438.11
486.80	441.45
487.17	444.85
487.53	448.57
487.90	452.44
488.26	456.69
488.62	461.14
488.99	465.61
489.35	470.36
489.72	475.45
490.08	480.79
490.44	486.24
490.81	491.83
491.17	497.55
491.54	503.69
491.90	509.95
492.26	516.66
492.63	523.70
492.99	531.00
493.36	538.55
493.72	546.52
494.08	554.63
494.45	563.15
494.81	572.07
495.17	581.20
495.54	590.84
495.90	600.88
496.26	611.20
496.63	621.74
496.99	632.62
497.35	643.92
497.72	655.60
498.08	667.71
498.44	680.10
498.80	693.30
499.17	706.79
499.53	720.78
499.89	735.10
500.26	749.50
500.62	764.19
500.98	779.61
501.34	795.18
501.71	811.51
502.07	828.09
502.43	845.14
502.79	862.32
503.16	879.95
503.52	897.85
503.88	916.20
504.24	935.05
504.60	954.09
504.97	973.58
505.33	993.51
505.69	1014.44
506.05	1035.45
506.41	1056.27
506.78	1077.45
507.14	1099.42
507.50	1121.87
507.86	1144.76
508.22	1167.79
508.59	1190.65
508.95	1214.30
509.31	1238.40
509.67	1263.16
510.03	1287.82
510.39	1312.87
510.75	1337.97
511.12	1363.12
511.48	1388.28
511.84	1413.45
512.20	1439.10
512.56	1465.24
512.92	1491.11
513.28	1516.67
513.64	1542.62
514.00	1568.73
514.37	1595.00
514.73	1620.96
515.09	1646.43
515.45	1672.18
515.81	1697.95
516.17	1723.84
516.53	1749.07
516.89	1774.21
517.25	1799.42
517.61	1824.37
517.97	1849.52
518.33	1874.30
518.69	1898.97
519.05	1923.82
519.41	1948.60
519.77	1973.26
520.13	1997.61
520.49	2021.87
520.85	2046.11
521.21	2070.15
521.57	2094.44
521.93	2117.61
522.29	2141.27
522.65	2164.43
523.01	2187.34
523.37	2209.50
523.73	2232.01
524.09	2254.68
524.45	2277.42
524.81	2299.36
525.17	2321.11
525.53	2342.13
525.89	2363.39
526.25	2384.24
526.61	2403.99
526.97	2423.86
527.33	2443.44
527.68	2462.14
528.04	2480.23
528.40	2497.28
528.76	2514.85
529.12	2531.18
529.48	2547.94
529.84	2563.47
530.20	2580.12
530.56	2595.75
530.91	2611.23
531.27	2625.68
531.63	2639.07
531.99	2652.20
532.35	2663.70
532.71	2675.28
533.07	2687.28
533.42	2697.63
533.78	2708.73
534.14	2720.15
534.50	2730.19
534.86	2740.27
535.21	2748.42
535.57	2756.61
535.93	2765.17
536.29	2772.55
536.65	2780.23
537.00	2785.76
537.36	2791.55
537.72	2795.63
538.08	2799.34
538.44	2802.15
538.79	2805.34
539.15	2808.01
539.51	2809.98
539.87	2812.69
540.22	2813.32
540.58	2814.24
540.94	2814.92
541.29	2814.11
541.65	2811.78
542.01	2809.53
542.37	2806.19
542.72	2804.52
543.08	2801.63
543.44	2798.61
543.79	2793.83
544.15	2788.84
544.51	2784.79
544.87	2778.78
545.22	2772.19
545.58	2765.74
545.94	2760.08
546.29	2752.86
546.65	2744.89
547.01	2737.05
547.36	2728.81
547.72	2720.50
548.07	2711.01
548.43	2701.26
548.79	2690.46
549.14	2680.64
549.50	2670.72
549.86	2660.14
550.21	2647.72
550.57	2636.60
550.92	2623.66
551.28	2611.27
551.64	2599.18
551.99	2587.16
552.35	2575.33
552.70	2563.20
553.06	2551.52
553.41	2538.77
553.77	2525.48
554.13	2512.43
554.48	2498.61
554.84	2484.24
555.19	2470.77
555.55	2456.58
555.90	2442.64
556.26	2429.62
556.61	2415.83
556.97	2400.96
557.32	2386.56
557.68	2372.42
558.03	2357.60
558.39	2343.66
558.74	2330.09
559.10	2314.37
559.45	2299.01
559.81	2284.48
560.16	2269.53
560.52	2254.25
560.87	2239.75
561.23	2224.83
561.58	2210.28
561.94	2194.99
562.29	2179.81
562.64	2164.75
563.00	2149.68
563.35	2135.18
563.71	2120.47
564.06	2105.29
564.42	2090.66
564.77	2076.14
565.12	2061.96
565.48	2047.72
565.83	2033.10
566.19	2018.63
566.54	2004.68
566.89	1989.60
567.25	1973.93
567.60	1959.51
567.96	1944.53
568.31	1928.96
568.66	1914.19
569.02	1899.46
569.37	1884.88
569.72	1870.66
570.08	1856.09
570.43	1841.56
570.78	1826.24
571.14	1810.89
571.49	1795.97
571.84	1781.84
572.20	1766.40
572.55	1751.21
572.90	1735.55
573.26	1719.94
573.61	1703.98
573.96	1688.64
574.31	1673.97
574.67	1659.75
575.02	1644.76
575.37	1629.50
575.72	1614.14
576.08	1599.07
576.43	1584.08
576.78	1569.13
577.13	1554.26
577.49	1539.48
577.84	1524.67
578.19	1509.97
578.54	1495.32
578.90	1480.61
579.25	1465.34
579.60	1451.29
579.95	1437.13
580.30	1423.13
580.66	1409.19
581.01	1395.46
581.36	1381.63
581.71	1367.70
582.06	1353.79
582.42	1340.09
582.77	1326.67
583.12	1313.62
583.47	1300.44
583.82	1287.33
584.17	1274.31
584.53	1261.23
584.88	1248.59
585.23	1235.72
585.58	1223.17
585.93	1210.68
586.28	1198.75
586.63	1186.69
586.98	1174.48
587.34	1162.68
587.69	1150.60
588.04	1138.90
588.39	1127.31
588.74	1115.62
589.09	1104.30
589.44	1092.54
589.79	1081.28
590.14	1070.22
590.49	1059.20
590.84	1048.51
591.19	1037.90
591.54	1027.19
591.89	1016.34
592.25	1005.50
592.60	994.68
592.95	984.05
593.30	973.46
593.65	962.82
594.00	952.52
594.35	942.88
594.70	932.75
595.05	923.32
595.40	913.72
595.75	903.97
596.10	894.67
596.45	885.26
596.80	876.21
597.15	867.15
597.50	858.15
597.85	849.46
598.19	840.68
598.54	831.95
598.89	823.43
599.24	815.31
599.59	807.17
599.94	799.59
600.29	791.85
600.64	784.18
600.99	776.49
601.34	769.05
601.69	760.97
602.04	753.52
602.39	746.18
602.74	739.07
603.08	732.06
603.43	725.08
603.78	718.19
604.13	711.46
604.48	704.72
604.83	698.22
605.18	691.74
605.53	685.43
605.87	678.97
606.22	672.78
606.57	666.56
606.92	660.30
607.27	654.14
607.62	648.31
607.96	642.59
608.31	637.16
608.66	631.54
609.01	626.16
609.36	621.01
609.70	615.77
610.05	610.45
610.40	605.30
610.75	600.05
611.10	595.14
611.44	590.19
611.79	585.33
612.14	580.44
612.49	575.52
612.83	570.79
613.18	566.36
613.53	561.90
613.88	557.45
614.22	553.22
614.57	548.87
614.92	544.59
615.27	540.40
615.61	536.20
615.96	532.17
616.31	528.20
616.65	524.19
617.00	520.27
617.35	516.47
617.70	512.73
618.04	509.18
618.39	505.55
618.74	502.09
619.08	498.53
619.43	495.06
619.78	491.72
620.12	488.40
620.47	485.21
620.82	482.03
621.16	478.95
621.51	475.98
621.85	473.07
622.20	470.20
622.55	467.34
622.89	464.55
623.24	461.86
623.59	459.23
623.93	456.62
624.28	454.12
624.62	451.83
624.97	449.50
625.32	447.03
625.66	444.55
626.01	442.10
626.35	439.88
626.70	437.59
627.04	435.43
627.39	433.22
627.73	431.03
628.08	428.98
628.43	426.94
628.77	424.89
629.12	422.96
629.46	421.00
629.81	419.16
630.15	417.23
630.50	415.33
630.84	413.50
631.19	411.75
631.53	410.07
631.88	408.19
632.22	406.41
632.57	404.99
632.91	403.54
633.26	402.13
633.60	400.66
633.95	399.30
634.29	397.82
634.64	396.41
634.98	394.87
635.32	393.47
635.67	392.15
636.01	390.82
636.36	389.53
636.70	388.39
637.05	387.10
637.39	385.95
637.73	384.79
638.08	383.68
638.42	382.57
638.77	381.32
639.11	380.07
639.45	378.88
639.80	377.64
640.14	376.47
640.49	375.27
640.83	374.11
641.17	372.95
641.52	371.84
641.86	370.79
642.20	369.90
642.55	368.83
642.89	367.78
643.23	366.75
643.58	365.82
643.92	364.74
644.26	363.74
644.61	362.79
644.95	361.82
645.29	360.82
645.64	359.80
645.98	358.84
646.32	357.99
646.66	357.08
647.01	356.14
647.35	355.27
647.69	354.40
648.04	353.55
648.38	352.67
648.72	351.86
649.06	351.05
649.41	350.19
649.75	349.38
650.09	348.63
650.43	347.86
650.78	347.03
651.12	346.26
651.46	345.53
651.80	344.78
652.14	344.04
652.49	343.35
652.83	342.60
653.17	341.91
653.51	341.22
653.85	340.61
654.20	339.97
654.54	339.25
654.88	338.56
655.22	337.92
655.56	337.22
655.90	336.53
656.25	335.85
656.59	335.20
656.93	334.59
657.27	334.00
657.61	333.34
657.95	332.75
658.29	332.15
658.64	331.59
658.98	330.99
659.32	330.37
659.66	329.78
660.00	329.22
660.34	328.65
660.68	328.03
661.02	327.37
661.36	326.74
661.70	326.17
662.05	325.61
662.39	325.08
662.73	324.65
663.07	324.20
663.41	323.68
663.75	323.12
664.09	322.56
664.43	321.93
664.77	321.41
665.11	320.80
665.45	320.26
665.79	319.71
666.13	319.14
666.47	318.61
666.81	318.03
667.15	317.44
667.49	316.94
667.83	316.51
668.17	316.05
668.51	315.63
668.85	315.20
669.19	314.84
669.53	314.33
669.87	313.82
670.21	313.35
670.55	312.88
670.89	312.54
671.23	312.12
671.57	311.71
671.91	311.34
672.25	310.98
672.58	310.60
672.92	310.16
673.26	309.77
673.60	309.37
673.94	308.99
674.28	308.62
674.62	308.25
674.96	307.80
675.30	307.40
675.64	306.95
675.97	306.51
676.31	306.01
676.65	305.56
676.99	305.18
677.33	304.68
677.67	304.27
678.01	303.72
678.34	303.27
678.68	302.87
679.02	302.38
679.36	301.94
679.70	301.46
680.04	301.02
680.37	300.59
680.71	300.16
681.05	299.77
681.39	299.33
681.73	298.86
682.06	298.38
682.40	297.95
682.74	297.57
683.08	297.21
683.42	296.78
683.75	296.37
684.09	295.87
684.43	295.43
684.77	294.97
685.10	294.58
685.44	294.19
685.78	293.75
686.12	293.36
686.45	292.92
686.79	292.48
687.13	292.06
687.46	291.61
687.80	291.17
688.14	290.67
688.48	290.24
688.81	289.82
689.15	289.46
689.49	289.01
689.82	288.53
690.16	288.00
690.50	287.56
690.83	287.12
691.17	286.66
691.51	286.23
691.84	285.85
692.18	285.42
692.52	284.96
692.85	284.53
693.19	284.16
693.52	283.76
693.86	283.35
694.20	282.95
694.53	282.53
694.87	282.09
695.21	281.66
695.54	281.24
695.88	280.79
696.21	280.30
696.55	279.87
696.88	279.45
697.22	279.03
697.56	278.62
697.89	278.15
698.23	277.74
698.56	277.30
698.90	276.87
699.23	276.42
699.57	276.00
699.90	275.55
700.24	275.06
700.58	274.65
700.91	274.28
701.25	274.02
701.58	273.71
701.92	273.37
702.25	273.01
702.59	272.62
702.92	272.23
703.26	271.84
703.59	271.44
703.93	271.20
704.26	270.86
704.60	270.48
704.93	270.10
705.26	269.71
705.60	269.39
705.93	268.96
706.27	268.64
706.60	268.31
706.94	268.02
707.27	267.63
707.61	267.24
707.94	266.84
708.27	266.31
708.61	265.84
708.94	265.44
709.28	265.07
709.61	264.70
709.94	264.38
710.28	264.07
710.61	263.78
710.95	263.32
711.28	263.10
711.61	262.76
711.95	262.48
712.28	262.15
712.61	261.78
712.95	261.56
713.28	261.31
713.61	260.95
713.95	260.58
714.28	260.28
714.61	259.95
714.95	259.64
715.28	259.34
715.61	259.04
715.95	258.77
716.28	258.46
716.61	258.17
716.95	257.83
717.28	257.51
717.61	257.18
717.94	256.87
718.28	256.46
718.61	256.17
718.94	255.85
719.27	255.58
719.61	255.33
719.94	255.04
720.27	254.68
720.60	254.41
720.94	254.16
721.27	253.92
721.60	253.70
721.93	253.44
722.27	253.24
722.60	253.01
722.93	252.73
723.26	252.51
723.59	252.25
723.93	252.06
724.26	251.85
724.59	251.61
724.92	251.40
725.25	251.22
725.59	250.99
725.92	250.80
726.25	250.58
726.58	250.36
726.91	250.10
727.24	249.90
727.57	249.68
727.91	249.43
728.24	249.22
728.57	249.00
728.90	248.82
729.23	248.56
729.56	248.44
729.89	248.24
730.22	248.01
730.55	247.82
730.89	247.59
731.22	247.38
731.55	247.17
731.88	246.95
732.21	246.72
732.54	246.52
732.87	246.32
733.20	246.14
733.53	245.95
733.86	245.77
734.19	245.56
734.52	245.42
734.85	245.37
735.18	245.18
735.51	245.05
735.84	244.88
736.17	244.75
736.50	244.48
736.83	244.51
737.16	244.35
737.49	244.19
737.82	244.03
738.15	243.88
738.48	243.72
738.81	243.58
739.14	243.40
739.47	243.23
739.80	243.06
740.13	242.91
740.46	242.74
740.79	242.57
741.12	242.43
741.45	242.25
741.78	242.00
742.11	241.90
742.44	241.71
742.77	241.59
743.10	241.42
743.43	241.28
743.75	240.94
744.08	241.08
744.41	240.92
744.74	240.77
745.07	240.61
745.40	240.52
745.73	240.45
746.06	240.33
746.39	240.23
746.71	240.09
747.04	239.95
747.37	239.81
747.70	239.72
748.03	239.59
748.36	239.48
748.68	239.36
749.01	239.18
749.34	239.06
749.67	238.94
750.00	238.85
750.33	238.86
750.65	238.76
750.98	238.38
751.31	238.28
751.64	238.18
751.97	238.16
752.29	238.02
752.62	237.82
752.95	237.69
753.28	237.56
753.60	237.44
753.93	237.38
754.26	237.29
754.59	237.12
754.91	236.99
755.24	236.87
755.57	236.77
755.90	236.66
756.22	236.53
756.55	236.39
756.88	236.25
757.20	236.02
757.53	235.87
757.86	235.78
758.19	235.69
758.51	235.58
758.84	235.39
759.17	235.29
759.49	235.20
759.82	235.20
760.15	235.13
760.47	235.04
760.80	234.90
761.13	234.84
761.45	234.75
761.78	234.68
762.11	234.61
762.43	234.51
762.76	234.42
763.08	234.37
763.41	234.30
763.74	234.22
764.06	234.14
764.39	234.08
764.71	233.99
765.04	233.89
765.37	233.81
765.69	233.74
766.02	233.67
766.34	233.59
766.67	233.44
767.00	233.41
767.32	233.44
767.65	233.49
767.97	233.40
768.30	233.35
768.62	233.29
768.95	233.20
769.27	233.14
769.60	233.10
769.92	233.01
770.25	232.91
770.57	232.83
770.90	232.77
771.22	232.69
771.55	232.64
771.87	232.60
772.20	232.54
772.52	232.64
772.85	232.80
773.17	232.75
773.50	232.68
773.82	232.59
774.15	232.45
774.47	232.28
774.80	232.22
775.12	232.16
775.45	232.11
775.77	232.06
776.09	232.01
776.42	231.97
776.74	231.99
777.07	231.96
777.39	231.93
777.72	231.88
778.04	231.86
778.36	231.79
778.69	231.74
779.01	231.70
779.33	231.51
779.66	231.26
779.98	231.21
780.31	231.19
780.63	231.23
780.95	231.22
781.28	231.18
781.60	231.13
781.92	231.10
782.25	231.06
782.57	231.02
782.89	230.98
783.22	230.93
783.54	230.85
783.86	230.82
784.19	230.78
784.51	230.79
784.83	230.74
785.16	230.71
785.48	230.68
785.80	230.65
786.12	230.62
786.45	230.60
786.77	230.57
787.09	230.53
787.42	230.43
787.74	230.40
788.06	230.38
788.38	230.34
788.71	230.30
789.03	230.27
789.35	230.27
789.67	230.22
789.99	230.21
790.32	230.16
790.64	230.15
790.96	230.28
791.28	230.19
791.61	230.16
791.93	230.14
792.25	230.10
792.57	230.19
792.89	230.15
793.21	230.12
793.54	230.09
793.86	230.05
794.18	230.04
794.50	229.98
794.82	229.95
795.14	229.95
795.47	229.96
795.79	229.94
796.11	229.88
796.43	229.86
796.75	229.83
797.07	229.82
797.39	229.79
797.71	229.63
798.04	229.62
798.36	229.62
798.68	229.60
799.00	229.60
799.32	229.49
799.64	229.49
799.96	229.48
800.28	229.50
800.60	229.47
800.92	229.46
801.24	229.43
801.56	229.43
801.89	229.40
802.21	229.38
802.53	229.32
802.85	229.35
803.17	229.41
803.49	229.36
803.81	229.33
804.13	229.30
804.45	229.25
804.77	229.24
805.09	229.21
805.41	229.17
805.73	229.12
806.05	229.06
806.37	229.04
806.69	229.00
807.01	228.95
807.33	228.95
807.65	228.87
807.97	228.93
808.28	228.89
808.60	228.87
808.92	228.83
809.24	228.93
809.56	228.88
809.88	228.80
810.20	228.80
810.52	228.82
810.84	228.78
811.16	228.75
811.48	228.72
811.80	228.77
812.12	228.75
812.43	228.78
812.75	228.78
813.07	228.73
813.39	228.74
813.71	228.71
814.03	228.69
814.35	228.70
814.67	228.61
814.98	228.58
815.30	228.57
815.62	228.52
815.94	228.40
816.26	228.41
816.58	228.36
816.89	228.36
817.21	228.30
817.53	228.31
817.85	228.31
818.17	228.31
818.48	228.23
818.80	228.25
819.12	228.22
819.44	228.18
819.76	228.16
820.07	228.15
820.39	228.14
820.71	228.14
821.03	228.12
821.34	228.10
821.66	228.12
821.98	228.12
822.30	228.10
822.61	228.21
822.93	228.17
823.25	228.17
823.57	228.13
823.88	228.15
824.20	228.13
824.52	228.15
824.83	228.13
825.15	228.10
825.47	228.07
825.79	228.08
826.10	228.06
826.42	228.04
826.74	228.03
827.05	228.03
827.37	228.03
827.69	228.01
828.00	228.02
828.32	228.01
828.64	227.98
828.95	228.07
829.27	228.01
829.58	228.00
829.90	228.02
830.22	228.04
830.53	228.00
830.85	227.98
831.17	227.92
831.48	227.92
831.80	227.92
832.11	227.92
832.43	227.88
832.75	227.88
833.06	227.99
833.38	227.94
833.69	227.92
834.01	227.92
834.32	227.91
834.64	227.89
834.96	227.89
835.27	227.89
835.59	227.82
835.90	227.79
836.22	227.79
836.53	227.74
836.85	227.71
837.16	227.89
837.48	227.90
837.79	227.95
838.11	227.95
838.42	227.95
838.74	227.95
839.05	227.94
839.37	227.93
839.68	227.81
840.00	227.81
840.31	227.83
840.63	227.80
840.94	227.77
841.26	227.75
841.57	227.74
841.88	227.76
842.20	227.72
842.51	227.69
842.83	227.68
843.14	227.84
843.46	227.83
843.77	227.72
844.08	227.71
844.40	227.65
844.71	227.63
845.03	227.60
845.34	227.59
845.65	227.58
845.97	227.57
846.28	227.58
846.60	227.57
846.91	227.55
847.22	227.55
847.54	227.58
847.85	227.59
848.16	227.56
848.48	227.52
848.79	227.59
849.10	227.60
849.42	227.61
849.73	227.44
850.04	227.44
850.36	227.38
850.67	227.41
850.98	227.41
851.30	227.42
851.61	227.41
851.92	227.41
852.23	227.46
852.55	227.47
852.86	227.47
853.17	227.48
853.49	227.51
853.80	227.54
854.11	227.55
854.42	227.56
854.74	227.55
855.05	227.55
855.36	227.45
855.67	227.44
855.99	227.44
856.30	227.65
856.61	227.64
856.92	227.64
857.23	227.63
857.55	227.61
857.86	227.60
858.17	227.62
858.48	227.59
858.79	227.54
859.11	227.56
859.42	227.55
859.73	227.52
860.04	227.52
860.35	227.46
860.66	227.41
860.98	227.39
861.29	227.43
861.60	227.42
861.91	227.47
862.22	227.44
862.53	227.41
862.84	227.20
863.16	227.24
863.47	227.21
863.78	227.18
864.09	227.19
864.40	227.20
864.71	227.21
865.02	227.23
865.33	227.20
865.64	227.18
865.95	227.18
866.27	227.29
866.58	227.27
866.89	227.29
867.20	227.28
867.51	227.26
867.82	227.23
868.13	227.29
868.44	227.24
868.75	227.29
869.06	227.30
869.37	227.33
869.68	227.27
869.99	227.31
870.30	227.33
870.61	227.34
870.92	227.32
871.23	227.30
871.54	227.32
871.85	227.36
872.16	227.38
872.47	227.36
872.78	227.28
873.09	227.30
873.40	227.29
873.71	227.31
874.02	227.32
874.33	227.31
874.64	227.26
874.95	227.29
875.26	227.24
875.56	227.24
875.87	227.23
876.18	227.22
876.49	227.39
876.80	227.36
877.11	227.33
877.42	227.34
877.73	227.35
878.04	227.33
878.35	227.31
878.66	227.32
878.96	227.32
879.27	227.31
879.58	227.29
879.89	227.28
880.20	227.34
880.51	227.34
880.82	227.35
881.12	227.35
881.43	227.31
881.74	227.29
882.05	227.29
882.36	227.29
882.67	227.32
882.97	227.12
883.28	227.13
883.59	227.13
883.90	227.13
884.21	227.15
884.51	227.15
884.82	227.13
885.13	227.11
885.44	227.11
885.74	227.11
886.05	227.10
886.36	227.10
886.67	227.03
886.98	227.11
887.28	227.12
887.59	227.12
887.90	227.14
888.20	227.14
888.51	227.18
888.82	227.14
889.13	227.15
889.43	227.31
889.74	227.30
890.05	227.30
890.35	227.29
890.66	227.26
890.97	227.24
891.28	227.22
891.58	227.21
891.89	227.22
892.20	227.19
892.50	227.17
892.81	227.16
893.12	227.16
893.42	227.07
893.73	227.08
894.04	227.09
894.34	227.10
894.65	227.10
894.95	227.07
895.26	227.09
895.57	227.16
895.87	226.97
896.18	227.00
896.48	227.02
896.79	227.02
897.10	227.05
897.40	227.07
897.71	227.08
898.01	227.08
898.32	227.08
898.63	227.08
898.93	227.09
899.24	227.09
899.54	227.09
899.85	227.09
900.15	227.06
900.46	227.06
900.76	227.06
901.07	227.06
901.38	227.05
901.68	227.07
901.99	226.98
902.29	227.00
902.60	226.99
902.90	226.96
903.21	226.96
903.51	226.93
903.82	226.97
904.12	226.96
904.43	226.97
904.73	226.97
905.03	226.97
905.34	227.16
905.64	227.14
905.95	227.13
906.25	227.13
906.56	227.12
906.86	227.13
907.17	227.10
907.47	227.10
907.77	227.08
908.08	227.04
908.38	227.04
908.69	227.06
908.99	227.08
909.30	227.10
909.60	227.10
909.90	227.10
910.21	227.05
910.51	227.03
910.81	227.03
911.12	227.05
911.42	227.05
911.73	226.85
912.03	226.87
912.33	226.91
912.64	226.90
912.94	226.89
913.24	226.86
913.55	226.85
913.85	226.84
914.15	226.88
914.46	226.91
914.76	226.90
915.06	226.87
915.37	226.84
915.67	226.82
915.97	226.81
916.27	226.78
916.58	226.80
916.88	226.80
917.18	226.78
917.49	226.89
917.79	226.87
918.09	226.89
918.39	226.93
918.70	226.91
919.00	226.92
919.30	227.01
919.60	227.00
919.91	226.98
920.21	226.99
920.51	226.96
920.81	226.94
921.12	226.97
921.42	226.97
921.72	226.98
922.02	227.00
922.32	227.02
922.63	227.02
922.93	227.11
923.23	227.11
923.53	227.10
923.83	226.97
924.13	227.00
924.44	227.02
924.74	227.05
925.04	227.09
925.34	227.09
925.64	227.01
925.94	227.01
926.24	227.11
926.55	227.10
926.85	227.13
927.15	227.13
927.45	227.12
927.75	227.13
928.05	227.12
928.35	227.11
928.65	227.14
928.95	227.15
929.26	227.07
929.56	227.10
929.86	227.13
930.16	227.12
930.46	227.09
930.76	227.09
931.06	227.00
931.36	226.96
931.66	226.99
931.96	227.02
932.26	227.03
932.56	226.95
932.86	226.96
933.16	226.95
933.46	226.94
933.76	226.91
934.06	226.94
934.36	226.99
934.66	226.98
934.96	226.95
935.26	226.97
935.56	226.99
935.86	226.95
936.16	226.93
936.46	226.92
936.76	226.92
937.06	226.87
937.36	226.90
937.66	226.89
937.96	226.87
938.26	226.83
938.56	226.82
938.86	226.84
939.16	226.87
939.46	226.89
939.76	226.90
940.06	226.91
940.35	226.88
940.65	226.78
940.95	226.79
941.25	226.75
941.55	226.73
941.85	226.71
942.15	226.75
942.45	226.79
942.75	226.78
943.04	226.79
943.34	226.84
943.64	226.82
943.94	226.79
944.24	226.79
944.54	226.81
944.84	226.80
945.13	226.78
945.43	226.74
945.73	226.73
946.03	226.70
946.33	226.70
946.62	226.67
946.92	226.69
947.22	226.70
947.52	226.71
947.82	226.73
948.11	226.71
948.41	226.68
948.71	226.63
949.01	226.65
949.31	226.63
949.60	226.62
949.90	226.65
950.20	226.66
950.50	226.65
950.79	226.64
951.09	226.67
951.39	226.66
951.69	226.64
951.98	226.67
952.28	226.68
952.58	226.67
952.87	226.68
953.17	226.71
953.47	226.68
953.76	226.69
954.06	226.66
954.36	226.63
954.66	226.62
954.95	226.67
955.25	226.67
955.55	226.69
955.84	226.65
956.14	226.65
956.44	226.66
956.73	226.64
957.03	226.65
957.32	226.64
957.62	226.64
957.92	226.68
958.21	226.66
958.51	226.87
958.81	226.89
959.10	226.92
959.40	226.94
959.69	226.96
959.99	226.98
960.29	226.98
960.58	226.98
960.88	227.05
961.17	227.03
961.47	227.04
961.76	227.03
962.06	227.06
962.36	227.05
962.65	227.06
962.95	227.06
963.24	227.04
963.54	227.05
963.83	227.06
964.13	227.04
964.42	227.03
964.72	226.88
965.01	226.87
965.31	226.86
965.60	226.82
965.90	226.93
966.19	226.87
966.49	226.89
966.78	226.88
967.08	226.86
967.37	226.86
967.67	226.83
967.96	226.86
968.26	226.85
968.55	226.87
968.85	226.86
969.14	226.86
969.43	226.86
969.73	226.85
970.02	226.84
970.32	226.83
970.61	226.80
970.91	226.73
971.20	226.71
971.49	226.70
971.79	226.72
972.08	226.59
972.38	226.60
972.67	226.59
972.96	226.62
973.26	226.60
973.55	226.66
973.85	226.65
974.14	226.63
974.43	226.64
974.73	226.61
975.02	226.61
975.31	226.61
975.61	226.60
975.90	226.59
976.19	226.57
976.49	226.59
976.78	226.60
977.07	226.61
977.37	226.62
977.66	226.64
977.95	226.61
978.24	226.63
978.54	226.67
978.83	226.67
979.12	226.65
979.42	226.64
979.71	226.60
980.00	226.60
980.29	226.61
980.59	226.58
980.88	226.63
981.17	226.61
981.46	226.62
981.76	226.62
982.05	226.68
982.34	226.70
982.63	226.70
982.93	226.70
983.22	226.75
983.51	226.76
983.80	226.79
984.09	226.81
984.39	226.80
984.68	226.77
984.97	226.77
985.26	226.77
985.55	226.79
985.85	226.76
986.14	226.78
986.43	226.80
986.72	226.80
987.01	226.74
987.30	226.74
987.59	226.73
987.89	226.74
988.18	226.69
988.47	226.68
988.76	226.66
989.05	226.65
989.34	226.62
989.63	226.66
989.92	226.64
990.22	226.61
990.51	226.61
990.80	226.60
991.09	226.61
991.38	226.64
991.67	226.62
991.96	226.62
992.25	226.62
992.54	226.60
992.83	226.61
993.12	226.61
993.41	226.64
993.70	226.72
993.99	226.74
994.28	226.76
994.58	226.79
994.87	226.76
995.16	226.76
995.45	226.74
995.74	226.68
996.03	226.70
996.32	226.74
996.61	226.78
996.90	226.78
997.19	226.77
997.48	226.77
997.77	226.75
998.06	226.76
998.34	226.74
998.63	226.73
998.92	226.73
999.21	226.76
999.50	226.76
999.79	226.69
1000.08	226.69
1000.37	226.70
1000.66	226.68
1000.95	226.73
1001.24	226.75
1001.53	226.79
1001.82	226.79
1002.11	226.75
1002.40	226.75
1002.68	226.79
1002.97	226.91
1003.26	226.89
1003.55	226.86
1003.84	226.88
1004.13	226.93
1004.42	226.94
1004.71	226.94
1004.99	226.93
1005.28	226.96
1005.57	226.95
1005.86	226.94
1006.15	226.92
1006.44	226.89
1006.72	226.90
1007.01	226.87
1007.30	226.86
1007.59	226.84
1007.88	226.84
1008.17	226.85
1008.45	226.81
1008.74	226.74
1009.03	226.65
1009.32	226.66
1009.60	226.67
1009.89	226.65
1010.18	226.58
1010.47	226.56
1010.76	226.55
1011.04	226.55
1011.33	226.54
1011.62	226.54
1011.91	226.55
1012.19	226.56
1012.48	226.58
1012.77	226.57
1013.05	226.63
1013.34	226.63
1013.63	226.61
1013.92	226.62
1014.20	226.61
1014.49	226.63
1014.78	226.65
1015.06	226.60
1015.35	226.60
1015.64	226.61
1015.92	226.64
1016.21	226.66
1016.50	226.66
1016.78	226.69
1017.07	226.70
1017.36	226.68
1017.64	226.66
1017.93	226.69
1018.22	226.67
1018.50	226.66
1018.79	226.67
1019.08	226.60
1019.36	226.61
1019.65	226.60
1019.93	226.65
1020.22	226.67
1020.51	226.75
1020.79	226.73
1021.08	226.50
1021.36	226.37
1021.65	226.65
1021.94	226.51
1022.22	226.68
1022.51	226.36
1022.79	227.48
1023.08	226.83
1023.36	228.71
1023.65	226.26
>>>>>End Processed Spectral Data<<<<<
