SpectraSuite Data File
++++++++++++++++++++++++++++++++++++
Date: Tue Oct 06 14:51:03 EDT 2015
User: lab3
Dark Spectrum Present: No
Reference Spectrum Present: No
Number of Sampled Component Spectra: 1
Spectrometers: USB2E7196
Integration Time (usec): 66000 (USB2E7196)
Spectra Averaged: 1000 (USB2E7196)
Boxcar Smoothing: 10 (USB2E7196)
Correct for Electrical Dark: No (USB2E7196)
Strobe/Lamp Enabled: No (USB2E7196)
Correct for Detector Non-linearity: No (USB2E7196)
Correct for Stray Light: No (USB2E7196)
Number of Pixels in Processed Spectrum: 2048
>>>>>Begin Processed Spectral Data<<<<<
339.09	0.00
339.48	214.84
339.86	216.14
340.24	217.73
340.63	219.16
341.01	222.94
341.39	221.75
341.78	223.34
342.16	224.79
342.54	224.81
342.93	213.31
343.31	224.09
343.69	224.62
344.07	225.09
344.46	225.53
344.84	225.93
345.22	226.14
345.60	226.42
345.99	226.63
346.37	226.76
346.75	226.89
347.13	226.99
347.52	227.08
347.90	227.23
348.28	227.28
348.66	227.37
349.05	227.37
349.43	227.45
349.81	227.52
350.19	227.60
350.57	227.68
350.96	227.78
351.34	227.89
351.72	228.00
352.10	228.13
352.48	228.20
352.87	228.25
353.25	228.32
353.63	228.38
354.01	228.44
354.39	228.53
354.77	228.60
355.15	228.72
355.54	228.76
355.92	228.76
356.30	228.83
356.68	229.01
357.06	229.09
357.44	229.11
357.82	229.18
358.20	229.38
358.58	229.44
358.97	229.51
359.35	229.60
359.73	229.68
360.11	229.73
360.49	229.80
360.87	229.85
361.25	229.92
361.63	230.01
362.01	230.05
362.39	230.07
362.77	230.13
363.15	230.13
363.53	230.17
363.91	230.21
364.29	230.23
364.67	230.08
365.05	230.11
365.43	230.16
365.81	230.18
366.19	230.13
366.57	230.21
366.95	230.20
367.33	230.15
367.71	230.16
368.09	230.18
368.47	230.18
368.85	230.16
369.23	230.17
369.61	230.10
369.99	230.13
370.37	230.13
370.75	230.24
371.13	230.20
371.51	230.15
371.89	230.13
372.27	230.11
372.65	230.09
373.03	230.06
373.41	230.01
373.78	229.95
374.16	229.82
374.54	229.72
374.92	229.68
375.30	229.65
375.68	229.56
376.06	229.52
376.44	229.45
376.82	229.42
377.19	229.38
377.57	229.34
377.95	229.23
378.33	229.17
378.71	228.96
379.09	228.93
379.47	228.91
379.84	228.85
380.22	228.78
380.60	228.70
380.98	228.64
381.36	228.59
381.73	228.52
382.11	228.51
382.49	228.47
382.87	228.39
383.25	228.34
383.62	228.52
384.00	228.44
384.38	228.41
384.76	228.41
385.13	228.42
385.51	228.38
385.89	228.34
386.27	228.32
386.64	228.32
387.02	228.27
387.40	228.22
387.78	228.21
388.15	228.18
388.53	228.16
388.91	228.13
389.29	228.10
389.66	228.12
390.04	228.08
390.42	228.10
390.79	228.11
391.17	228.11
391.55	227.89
391.92	227.89
392.30	227.91
392.68	227.88
393.05	227.86
393.43	227.87
393.81	227.89
394.18	227.87
394.56	227.87
394.94	227.93
395.31	227.94
395.69	228.01
396.06	228.07
396.44	228.12
396.82	228.15
397.19	228.29
397.57	228.31
397.95	228.40
398.32	228.38
398.70	228.44
399.07	228.54
399.45	228.61
399.82	228.69
400.20	228.74
400.58	228.84
400.95	228.85
401.33	228.98
401.70	229.21
402.08	229.36
402.45	229.49
402.83	229.66
403.20	229.83
403.58	229.97
403.95	230.18
404.33	230.40
404.71	230.62
405.08	230.93
405.46	231.17
405.83	231.44
406.21	231.75
406.58	232.08
406.96	232.40
407.33	232.78
407.70	233.21
408.08	233.78
408.45	234.29
408.83	234.85
409.20	235.36
409.58	235.82
409.95	236.44
410.33	237.12
410.70	237.76
411.08	238.52
411.45	239.31
411.82	240.12
412.20	241.06
412.57	242.16
412.95	243.04
413.32	244.20
413.69	245.39
414.07	246.64
414.44	248.02
414.82	249.42
415.19	251.07
415.56	252.74
415.94	254.47
416.31	256.41
416.68	258.37
417.06	260.62
417.43	262.75
417.81	265.17
418.18	267.67
418.55	270.38
418.93	273.20
419.30	276.16
419.67	279.29
420.04	282.52
420.42	285.91
420.79	289.81
421.16	293.74
421.54	297.72
421.91	301.91
422.28	306.23
422.66	310.90
423.03	315.30
423.40	319.95
423.77	324.92
424.15	329.99
424.52	335.25
424.89	340.96
425.26	346.61
425.64	351.86
426.01	357.75
426.38	363.80
426.75	370.01
427.13	376.33
427.50	382.97
427.87	389.80
428.24	396.68
428.61	403.24
428.99	410.35
429.36	418.19
429.73	425.69
430.10	433.15
430.47	440.79
430.85	448.72
431.22	457.15
431.59	465.79
431.96	474.22
432.33	483.60
432.70	492.55
433.08	503.17
433.45	513.19
433.82	523.01
434.19	533.98
434.56	544.78
434.93	555.26
435.30	565.66
435.68	577.52
436.05	589.11
436.42	600.73
436.79	611.33
437.16	622.77
437.53	635.03
437.90	647.37
438.27	659.39
438.64	672.31
439.01	684.12
439.38	695.04
439.75	705.53
440.13	717.49
440.50	728.87
440.87	737.92
441.24	747.84
441.61	758.79
441.98	766.84
442.35	776.35
442.72	786.14
443.09	795.52
443.46	801.71
443.83	806.32
444.20	810.10
444.57	815.68
444.94	819.11
445.31	822.55
445.68	825.45
446.05	827.67
446.42	827.47
446.79	827.04
447.16	826.64
447.53	826.45
447.90	823.07
448.27	819.73
448.64	814.52
449.01	811.06
449.37	803.65
449.74	797.01
450.11	788.39
450.48	778.78
450.85	769.08
451.22	760.64
451.59	752.47
451.96	745.21
452.33	734.52
452.70	724.96
453.07	713.36
453.43	701.83
453.80	690.57
454.17	679.80
454.54	669.77
454.91	658.41
455.28	647.61
455.65	637.40
456.02	626.69
456.38	618.03
456.75	606.87
457.12	597.86
457.49	588.74
457.86	580.14
458.23	572.62
458.59	564.30
458.96	555.78
459.33	548.28
459.70	540.61
460.07	534.68
460.43	527.73
460.80	521.22
461.17	515.50
461.54	509.44
461.91	503.73
462.27	497.95
462.64	493.24
463.01	487.85
463.38	482.47
463.74	477.59
464.11	473.27
464.48	469.40
464.85	465.17
465.21	461.91
465.58	458.31
465.95	454.21
466.32	450.92
466.68	447.69
467.05	444.44
467.42	441.28
467.78	437.93
468.15	434.82
468.52	432.56
468.88	429.58
469.25	426.85
469.62	424.68
469.98	422.29
470.35	420.12
470.72	418.19
471.08	416.20
471.45	414.54
471.82	412.69
472.18	410.73
472.55	409.49
472.92	407.94
473.28	406.71
473.65	405.39
474.02	404.17
474.38	403.15
474.75	402.50
475.11	401.61
475.48	401.17
475.85	400.72
476.21	400.46
476.58	400.29
476.94	400.46
477.31	400.49
477.67	400.60
478.04	400.90
478.41	401.29
478.77	401.89
479.14	402.22
479.50	402.96
479.87	403.91
480.23	404.86
480.60	405.78
480.96	406.72
481.33	408.14
481.69	409.53
482.06	410.93
482.42	412.24
482.79	413.80
483.15	415.66
483.52	417.77
483.88	419.78
484.25	421.92
484.61	424.16
484.98	426.55
485.34	429.25
485.71	432.05
486.07	435.05
486.44	437.98
486.80	441.31
487.17	444.69
487.53	448.42
487.90	452.29
488.26	456.54
488.62	460.98
488.99	465.45
489.35	470.19
489.72	475.25
490.08	480.57
490.44	486.02
490.81	491.63
491.17	497.33
491.54	503.46
491.90	509.74
492.26	516.43
492.63	523.45
492.99	530.74
493.36	538.31
493.72	546.28
494.08	554.39
494.45	562.93
494.81	571.88
495.17	581.00
495.54	590.63
495.90	600.65
496.26	610.96
496.63	621.49
496.99	632.35
497.35	643.66
497.72	655.34
498.08	667.44
498.44	679.81
498.80	693.04
499.17	706.57
499.53	720.53
499.89	734.85
500.26	749.25
500.62	763.92
500.98	779.30
501.34	794.85
501.71	811.20
502.07	827.77
502.43	844.77
502.79	861.95
503.16	879.58
503.52	897.46
503.88	915.78
504.24	934.61
504.60	953.68
504.97	973.19
505.33	993.16
505.69	1014.09
506.05	1035.06
506.41	1055.90
506.78	1077.04
507.14	1099.03
507.50	1121.48
507.86	1144.37
508.22	1167.46
508.59	1190.35
508.95	1214.03
509.31	1238.09
509.67	1262.86
510.03	1287.56
510.39	1312.64
510.75	1337.75
511.12	1362.93
511.48	1388.13
511.84	1413.30
512.20	1438.91
512.56	1465.03
512.92	1490.88
513.28	1516.47
513.64	1542.43
514.00	1568.45
514.37	1594.69
514.73	1620.61
515.09	1646.02
515.45	1671.78
515.81	1697.53
516.17	1723.40
516.53	1748.58
516.89	1773.69
517.25	1798.83
517.61	1823.82
517.97	1848.91
518.33	1873.63
518.69	1898.34
519.05	1923.10
519.41	1947.86
519.77	1972.51
520.13	1996.81
520.49	2021.05
520.85	2045.23
521.21	2069.31
521.57	2093.63
521.93	2116.80
522.29	2140.48
522.65	2163.71
523.01	2186.59
523.37	2208.71
523.73	2231.25
524.09	2253.95
524.45	2276.70
524.81	2298.65
525.17	2320.33
525.53	2341.35
525.89	2362.68
526.25	2383.53
526.61	2403.34
526.97	2423.26
527.33	2442.85
527.68	2461.57
528.04	2479.66
528.40	2496.71
528.76	2514.27
529.12	2530.60
529.48	2547.43
529.84	2562.88
530.20	2579.52
530.56	2595.15
530.91	2610.65
531.27	2625.06
531.63	2638.45
531.99	2651.61
532.35	2663.17
532.71	2674.80
533.07	2686.73
533.42	2697.06
533.78	2708.13
534.14	2719.49
534.50	2729.51
534.86	2739.61
535.21	2747.78
535.57	2755.91
535.93	2764.51
536.29	2771.92
536.65	2779.58
537.00	2785.01
537.36	2790.83
537.72	2794.80
538.08	2798.52
538.44	2801.32
538.79	2804.54
539.15	2807.17
539.51	2809.18
539.87	2811.85
540.22	2812.52
540.58	2813.54
540.94	2814.23
541.29	2813.37
541.65	2811.12
542.01	2808.85
542.37	2805.47
542.72	2803.82
543.08	2800.98
543.44	2798.01
543.79	2793.18
544.15	2788.18
544.51	2784.20
544.87	2778.21
545.22	2771.72
545.58	2765.27
545.94	2759.62
546.29	2752.33
546.65	2744.39
547.01	2736.51
547.36	2728.27
547.72	2719.91
548.07	2710.39
548.43	2700.64
548.79	2689.89
549.14	2680.02
549.50	2670.10
549.86	2659.55
550.21	2647.09
550.57	2635.94
550.92	2622.85
551.28	2610.51
551.64	2598.47
551.99	2586.41
552.35	2574.56
552.70	2562.42
553.06	2550.73
553.41	2537.97
553.77	2524.75
554.13	2511.76
554.48	2497.95
554.84	2483.59
555.19	2470.13
555.55	2456.00
555.90	2442.04
556.26	2428.98
556.61	2415.21
556.97	2400.39
557.32	2385.94
557.68	2371.83
558.03	2357.04
558.39	2343.19
558.74	2329.62
559.10	2313.83
559.45	2298.52
559.81	2283.95
560.16	2269.00
560.52	2253.76
560.87	2239.25
561.23	2224.33
561.58	2209.77
561.94	2194.47
562.29	2179.31
562.64	2164.18
563.00	2149.05
563.35	2134.56
563.71	2119.89
564.06	2104.76
564.42	2090.12
564.77	2075.58
565.12	2061.35
565.48	2047.11
565.83	2032.48
566.19	2017.95
566.54	2004.08
566.89	1989.00
567.25	1973.35
567.60	1958.93
567.96	1943.97
568.31	1928.44
568.66	1913.66
569.02	1898.88
569.37	1884.30
569.72	1870.02
570.08	1855.50
570.43	1840.99
570.78	1825.69
571.14	1810.33
571.49	1795.35
571.84	1781.21
572.20	1765.83
572.55	1750.69
572.90	1734.99
573.26	1719.37
573.61	1703.47
573.96	1688.10
574.31	1673.42
574.67	1659.27
575.02	1644.31
575.37	1629.00
575.72	1613.61
576.08	1598.55
576.43	1583.60
576.78	1568.65
577.13	1553.81
577.49	1539.04
577.84	1524.19
578.19	1509.52
578.54	1494.91
578.90	1480.23
579.25	1465.02
579.60	1450.94
579.95	1436.76
580.30	1422.80
580.66	1408.91
581.01	1395.16
581.36	1381.32
581.71	1367.39
582.06	1353.46
582.42	1339.74
582.77	1326.33
583.12	1313.30
583.47	1300.11
583.82	1286.98
584.17	1273.96
584.53	1260.87
584.88	1248.20
585.23	1235.40
585.58	1222.83
585.93	1210.29
586.28	1198.36
586.63	1186.27
586.98	1174.12
587.34	1162.35
587.69	1150.29
588.04	1138.57
588.39	1126.97
588.74	1115.28
589.09	1104.00
589.44	1092.24
589.79	1080.97
590.14	1069.91
590.49	1058.84
590.84	1048.17
591.19	1037.53
591.54	1026.82
591.89	1015.99
592.25	1005.19
592.60	994.34
592.95	983.73
593.30	973.19
593.65	962.54
594.00	952.27
594.35	942.59
594.70	932.44
595.05	923.02
595.40	913.41
595.75	903.68
596.10	894.39
596.45	884.97
596.80	875.91
597.15	866.84
597.50	857.82
597.85	849.19
598.19	840.42
598.54	831.72
598.89	823.19
599.24	815.08
599.59	806.99
599.94	799.40
600.29	791.63
600.64	783.96
600.99	776.27
601.34	768.76
601.69	760.72
602.04	753.28
602.39	745.92
602.74	738.81
603.08	731.83
603.43	724.85
603.78	717.96
604.13	711.26
604.48	704.55
604.83	698.08
605.18	691.60
605.53	685.29
605.87	678.84
606.22	672.67
606.57	666.47
606.92	660.14
607.27	653.98
607.62	648.14
607.96	642.41
608.31	636.98
608.66	631.39
609.01	626.00
609.36	620.86
609.70	615.63
610.05	610.32
610.40	605.14
610.75	599.89
611.10	594.96
611.44	589.99
611.79	585.14
612.14	580.23
612.49	575.31
612.83	570.58
613.18	566.12
613.53	561.65
613.88	557.20
614.22	553.00
614.57	548.67
614.92	544.39
615.27	540.20
615.61	536.03
615.96	532.01
616.31	528.03
616.65	524.01
617.00	520.07
617.35	516.27
617.70	512.54
618.04	509.00
618.39	505.38
618.74	501.89
619.08	498.34
619.43	494.88
619.78	491.54
620.12	488.21
620.47	485.04
620.82	481.86
621.16	478.75
621.51	475.81
621.85	472.89
622.20	470.02
622.55	467.18
622.89	464.36
623.24	461.68
623.59	459.03
623.93	456.41
624.28	453.93
624.62	451.65
624.97	449.34
625.32	446.89
625.66	444.44
626.01	442.03
626.35	439.79
626.70	437.51
627.04	435.34
627.39	433.14
627.73	430.96
628.08	428.89
628.43	426.89
628.77	424.82
629.12	422.91
629.46	420.96
629.81	419.10
630.15	417.19
630.50	415.27
630.84	413.48
631.19	411.74
631.53	410.05
631.88	408.17
632.22	406.39
632.57	404.93
632.91	403.48
633.26	402.07
633.60	400.61
633.95	399.23
634.29	397.77
634.64	396.34
634.98	394.79
635.32	393.38
635.67	392.05
636.01	390.74
636.36	389.44
636.70	388.28
637.05	387.00
637.39	385.84
637.73	384.70
638.08	383.55
638.42	382.43
638.77	381.19
639.11	379.93
639.45	378.74
639.80	377.50
640.14	376.31
640.49	375.10
640.83	373.95
641.17	372.80
641.52	371.66
641.86	370.59
642.20	369.72
642.55	368.65
642.89	367.59
643.23	366.54
643.58	365.62
643.92	364.53
644.26	363.51
644.61	362.57
644.95	361.59
645.29	360.61
645.64	359.61
645.98	358.66
646.32	357.81
646.66	356.89
647.01	355.97
647.35	355.12
647.69	354.25
648.04	353.41
648.38	352.52
648.72	351.73
649.06	350.93
649.41	350.08
649.75	349.26
650.09	348.52
650.43	347.75
650.78	346.94
651.12	346.18
651.46	345.45
651.80	344.71
652.14	343.98
652.49	343.28
652.83	342.52
653.17	341.82
653.51	341.12
653.85	340.50
654.20	339.87
654.54	339.15
654.88	338.48
655.22	337.83
655.56	337.15
655.90	336.44
656.25	335.77
656.59	335.10
656.93	334.51
657.27	333.94
657.61	333.28
657.95	332.68
658.29	332.05
658.64	331.52
658.98	330.89
659.32	330.29
659.66	329.70
660.00	329.14
660.34	328.58
660.68	327.98
661.02	327.33
661.36	326.70
661.70	326.10
662.05	325.54
662.39	325.02
662.73	324.57
663.07	324.12
663.41	323.61
663.75	323.06
664.09	322.51
664.43	321.87
664.77	321.36
665.11	320.76
665.45	320.22
665.79	319.65
666.13	319.10
666.47	318.56
666.81	317.98
667.15	317.41
667.49	316.91
667.83	316.48
668.17	316.02
668.51	315.57
668.85	315.15
669.19	314.76
669.53	314.23
669.87	313.72
670.21	313.25
670.55	312.79
670.89	312.45
671.23	312.02
671.57	311.61
671.91	311.24
672.25	310.88
672.58	310.52
672.92	310.05
673.26	309.66
673.60	309.26
673.94	308.89
674.28	308.52
674.62	308.15
674.96	307.69
675.30	307.30
675.64	306.88
675.97	306.44
676.31	305.94
676.65	305.49
676.99	305.14
677.33	304.65
677.67	304.22
678.01	303.67
678.34	303.23
678.68	302.82
679.02	302.33
679.36	301.88
679.70	301.41
680.04	300.99
680.37	300.56
680.71	300.14
681.05	299.73
681.39	299.28
681.73	298.78
682.06	298.33
682.40	297.89
682.74	297.51
683.08	297.15
683.42	296.73
683.75	296.33
684.09	295.81
684.43	295.37
684.77	294.92
685.10	294.51
685.44	294.12
685.78	293.71
686.12	293.31
686.45	292.87
686.79	292.41
687.13	291.99
687.46	291.54
687.80	291.10
688.14	290.61
688.48	290.18
688.81	289.77
689.15	289.40
689.49	288.94
689.82	288.46
690.16	287.94
690.50	287.50
690.83	287.08
691.17	286.62
691.51	286.20
691.84	285.83
692.18	285.42
692.52	284.94
692.85	284.50
693.19	284.14
693.52	283.74
693.86	283.34
694.20	282.93
694.53	282.53
694.87	282.08
695.21	281.66
695.54	281.24
695.88	280.79
696.21	280.29
696.55	279.86
696.88	279.43
697.22	279.02
697.56	278.60
697.89	278.12
698.23	277.71
698.56	277.27
698.90	276.83
699.23	276.37
699.57	275.96
699.90	275.51
700.24	275.01
700.58	274.60
700.91	274.22
701.25	273.96
701.58	273.63
701.92	273.30
702.25	272.93
702.59	272.52
702.92	272.14
703.26	271.77
703.59	271.38
703.93	271.14
704.26	270.78
704.60	270.38
704.93	270.00
705.26	269.60
705.60	269.26
705.93	268.83
706.27	268.52
706.60	268.20
706.94	267.90
707.27	267.51
707.61	267.12
707.94	266.74
708.27	266.20
708.61	265.75
708.94	265.35
709.28	264.98
709.61	264.61
709.94	264.30
710.28	263.98
710.61	263.68
710.95	263.20
711.28	262.98
711.61	262.66
711.95	262.38
712.28	262.04
712.61	261.68
712.95	261.45
713.28	261.19
713.61	260.82
713.95	260.45
714.28	260.16
714.61	259.84
714.95	259.52
715.28	259.20
715.61	258.92
715.95	258.64
716.28	258.32
716.61	258.05
716.95	257.71
717.28	257.40
717.61	257.06
717.94	256.78
718.28	256.37
718.61	256.07
718.94	255.76
719.27	255.50
719.61	255.25
719.94	254.95
720.27	254.58
720.60	254.32
720.94	254.07
721.27	253.82
721.60	253.60
721.93	253.33
722.27	253.13
722.60	252.89
722.93	252.61
723.26	252.38
723.59	252.11
723.93	251.92
724.26	251.70
724.59	251.47
724.92	251.25
725.25	251.08
725.59	250.86
725.92	250.67
726.25	250.44
726.58	250.23
726.91	249.99
727.24	249.79
727.57	249.57
727.91	249.33
728.24	249.14
728.57	248.92
728.90	248.75
729.23	248.49
729.56	248.37
729.89	248.19
730.22	247.98
730.55	247.78
730.89	247.57
731.22	247.36
731.55	247.15
731.88	246.95
732.21	246.70
732.54	246.50
732.87	246.29
733.20	246.12
733.53	245.94
733.86	245.76
734.19	245.56
734.52	245.41
734.85	245.37
735.18	245.17
735.51	245.03
735.84	244.88
736.17	244.77
736.50	244.49
736.83	244.52
737.16	244.35
737.49	244.19
737.82	244.01
738.15	243.87
738.48	243.72
738.81	243.55
739.14	243.39
739.47	243.23
739.80	243.08
740.13	242.94
740.46	242.76
740.79	242.59
741.12	242.44
741.45	242.26
741.78	242.01
742.11	241.91
742.44	241.72
742.77	241.58
743.10	241.40
743.43	241.27
743.75	240.94
744.08	241.07
744.41	240.91
744.74	240.77
745.07	240.59
745.40	240.49
745.73	240.43
746.06	240.32
746.39	240.22
746.71	240.06
747.04	239.91
747.37	239.78
747.70	239.69
748.03	239.56
748.36	239.47
748.68	239.34
749.01	239.17
749.34	239.06
749.67	238.94
750.00	238.85
750.33	238.86
750.65	238.76
750.98	238.39
751.31	238.30
751.64	238.19
751.97	238.18
752.29	238.05
752.62	237.84
752.95	237.71
753.28	237.57
753.60	237.46
753.93	237.39
754.26	237.31
754.59	237.14
754.91	237.01
755.24	236.88
755.57	236.77
755.90	236.66
756.22	236.53
756.55	236.39
756.88	236.24
757.20	236.01
757.53	235.86
757.86	235.75
758.19	235.66
758.51	235.56
758.84	235.38
759.17	235.27
759.49	235.20
759.82	235.19
760.15	235.11
760.47	235.01
760.80	234.87
761.13	234.80
761.45	234.72
761.78	234.63
762.11	234.56
762.43	234.46
762.76	234.37
763.08	234.31
763.41	234.24
763.74	234.17
764.06	234.10
764.39	234.02
764.71	233.93
765.04	233.83
765.37	233.74
765.69	233.67
766.02	233.59
766.34	233.50
766.67	233.35
767.00	233.32
767.32	233.36
767.65	233.41
767.97	233.32
768.30	233.27
768.62	233.21
768.95	233.12
769.27	233.05
769.60	233.02
769.92	232.93
770.25	232.84
770.57	232.74
770.90	232.68
771.22	232.61
771.55	232.56
771.87	232.52
772.20	232.47
772.52	232.56
772.85	232.71
773.17	232.68
773.50	232.63
773.82	232.55
774.15	232.41
774.47	232.25
774.80	232.19
775.12	232.13
775.45	232.08
775.77	232.05
776.09	232.02
776.42	231.98
776.74	231.98
777.07	231.94
777.39	231.92
777.72	231.87
778.04	231.86
778.36	231.81
778.69	231.77
779.01	231.74
779.33	231.54
779.66	231.30
779.98	231.23
780.31	231.20
780.63	231.23
780.95	231.21
781.28	231.16
781.60	231.11
781.92	231.08
782.25	231.03
782.57	230.99
782.89	230.94
783.22	230.89
783.54	230.82
783.86	230.79
784.19	230.75
784.51	230.77
784.83	230.71
785.16	230.67
785.48	230.63
785.80	230.60
786.12	230.58
786.45	230.55
786.77	230.53
787.09	230.49
787.42	230.40
787.74	230.38
788.06	230.36
788.38	230.33
788.71	230.29
789.03	230.28
789.35	230.26
789.67	230.22
789.99	230.21
790.32	230.16
790.64	230.16
790.96	230.30
791.28	230.21
791.61	230.18
791.93	230.17
792.25	230.13
792.57	230.23
792.89	230.18
793.21	230.17
793.54	230.14
793.86	230.11
794.18	230.09
794.50	230.04
794.82	230.01
795.14	230.01
795.47	230.03
795.79	230.00
796.11	229.94
796.43	229.91
796.75	229.89
797.07	229.88
797.39	229.83
797.71	229.67
798.04	229.66
798.36	229.65
798.68	229.63
799.00	229.62
799.32	229.52
799.64	229.53
799.96	229.50
800.28	229.50
800.60	229.48
800.92	229.47
801.24	229.44
801.56	229.45
801.89	229.41
802.21	229.39
802.53	229.34
802.85	229.37
803.17	229.45
803.49	229.38
803.81	229.36
804.13	229.32
804.45	229.29
804.77	229.28
805.09	229.26
805.41	229.22
805.73	229.17
806.05	229.11
806.37	229.08
806.69	229.04
807.01	229.00
807.33	228.99
807.65	228.91
807.97	228.97
808.28	228.92
808.60	228.90
808.92	228.86
809.24	228.96
809.56	228.92
809.88	228.83
810.20	228.83
810.52	228.85
810.84	228.82
811.16	228.79
811.48	228.76
811.80	228.81
812.12	228.80
812.43	228.82
812.75	228.81
813.07	228.78
813.39	228.77
813.71	228.75
814.03	228.72
814.35	228.72
814.67	228.65
814.98	228.62
815.30	228.61
815.62	228.57
815.94	228.44
816.26	228.45
816.58	228.39
816.89	228.40
817.21	228.35
817.53	228.34
817.85	228.34
818.17	228.33
818.48	228.25
818.80	228.28
819.12	228.24
819.44	228.21
819.76	228.18
820.07	228.18
820.39	228.17
820.71	228.16
821.03	228.16
821.34	228.14
821.66	228.15
821.98	228.16
822.30	228.15
822.61	228.25
822.93	228.21
823.25	228.22
823.57	228.19
823.88	228.19
824.20	228.18
824.52	228.20
824.83	228.18
825.15	228.15
825.47	228.13
825.79	228.14
826.10	228.12
826.42	228.11
826.74	228.10
827.05	228.09
827.37	228.09
827.69	228.07
828.00	228.07
828.32	228.05
828.64	228.02
828.95	228.11
829.27	228.05
829.58	228.04
829.90	228.05
830.22	228.05
830.53	228.01
830.85	228.00
831.17	227.94
831.48	227.92
831.80	227.92
832.11	227.90
832.43	227.86
832.75	227.85
833.06	227.95
833.38	227.90
833.69	227.89
834.01	227.88
834.32	227.87
834.64	227.85
834.96	227.85
835.27	227.83
835.59	227.75
835.90	227.72
836.22	227.71
836.53	227.68
836.85	227.66
837.16	227.85
837.48	227.85
837.79	227.90
838.11	227.90
838.42	227.88
838.74	227.89
839.05	227.89
839.37	227.87
839.68	227.75
840.00	227.74
840.31	227.77
840.63	227.74
840.94	227.72
841.26	227.71
841.57	227.69
841.88	227.71
842.20	227.67
842.51	227.63
842.83	227.62
843.14	227.78
843.46	227.77
843.77	227.66
844.08	227.63
844.40	227.57
844.71	227.54
845.03	227.53
845.34	227.52
845.65	227.52
845.97	227.53
846.28	227.54
846.60	227.55
846.91	227.54
847.22	227.54
847.54	227.57
847.85	227.58
848.16	227.56
848.48	227.53
848.79	227.60
849.10	227.63
849.42	227.65
849.73	227.48
850.04	227.47
850.36	227.40
850.67	227.44
850.98	227.45
851.30	227.47
851.61	227.46
851.92	227.46
852.23	227.50
852.55	227.50
852.86	227.50
853.17	227.51
853.49	227.53
853.80	227.55
854.11	227.57
854.42	227.58
854.74	227.57
855.05	227.57
855.36	227.48
855.67	227.48
855.99	227.47
856.30	227.68
856.61	227.68
856.92	227.69
857.23	227.68
857.55	227.66
857.86	227.64
858.17	227.66
858.48	227.64
858.79	227.60
859.11	227.62
859.42	227.59
859.73	227.56
860.04	227.55
860.35	227.50
860.66	227.44
860.98	227.43
861.29	227.45
861.60	227.42
861.91	227.46
862.22	227.44
862.53	227.40
862.84	227.18
863.16	227.22
863.47	227.18
863.78	227.17
864.09	227.18
864.40	227.18
864.71	227.19
865.02	227.21
865.33	227.17
865.64	227.14
865.95	227.15
866.27	227.27
866.58	227.23
866.89	227.26
867.20	227.25
867.51	227.23
867.82	227.22
868.13	227.28
868.44	227.23
868.75	227.26
869.06	227.27
869.37	227.30
869.68	227.24
869.99	227.27
870.30	227.26
870.61	227.27
870.92	227.25
871.23	227.22
871.54	227.24
871.85	227.29
872.16	227.31
872.47	227.29
872.78	227.18
873.09	227.21
873.40	227.18
873.71	227.20
874.02	227.21
874.33	227.19
874.64	227.14
874.95	227.17
875.26	227.12
875.56	227.12
875.87	227.10
876.18	227.11
876.49	227.29
876.80	227.28
877.11	227.24
877.42	227.26
877.73	227.26
878.04	227.22
878.35	227.22
878.66	227.22
878.96	227.22
879.27	227.21
879.58	227.20
879.89	227.19
880.20	227.23
880.51	227.21
880.82	227.22
881.12	227.23
881.43	227.19
881.74	227.19
882.05	227.17
882.36	227.18
882.67	227.18
882.97	226.98
883.28	226.96
883.59	226.96
883.90	226.98
884.21	227.01
884.51	227.01
884.82	226.98
885.13	226.96
885.44	226.96
885.74	226.97
886.05	226.96
886.36	226.97
886.67	226.90
886.98	227.00
887.28	227.01
887.59	227.01
887.90	227.03
888.20	227.02
888.51	227.05
888.82	227.02
889.13	227.04
889.43	227.20
889.74	227.20
890.05	227.21
890.35	227.19
890.66	227.15
890.97	227.13
891.28	227.11
891.58	227.12
891.89	227.13
892.20	227.11
892.50	227.09
892.81	227.09
893.12	227.10
893.42	227.02
893.73	227.01
894.04	227.01
894.34	227.03
894.65	227.03
894.95	227.01
895.26	227.02
895.57	227.08
895.87	226.90
896.18	226.94
896.48	226.94
896.79	226.94
897.10	226.97
897.40	226.98
897.71	227.00
898.01	226.97
898.32	226.98
898.63	226.99
898.93	227.01
899.24	227.01
899.54	227.00
899.85	226.98
900.15	226.97
900.46	226.97
900.76	226.98
901.07	226.98
901.38	226.97
901.68	227.00
901.99	226.92
902.29	226.94
902.60	226.92
902.90	226.90
903.21	226.90
903.51	226.89
903.82	226.92
904.12	226.93
904.43	226.95
904.73	226.94
905.03	226.94
905.34	227.11
905.64	227.10
905.95	227.10
906.25	227.10
906.56	227.10
906.86	227.10
907.17	227.08
907.47	227.10
907.77	227.09
908.08	227.05
908.38	227.05
908.69	227.07
908.99	227.10
909.30	227.13
909.60	227.12
909.90	227.12
910.21	227.07
910.51	227.03
910.81	227.03
911.12	227.03
911.42	227.03
911.73	226.84
912.03	226.85
912.33	226.90
912.64	226.88
912.94	226.86
913.24	226.83
913.55	226.81
913.85	226.79
914.15	226.82
914.46	226.85
914.76	226.84
915.06	226.83
915.37	226.79
915.67	226.76
915.97	226.76
916.27	226.73
916.58	226.74
916.88	226.75
917.18	226.74
917.49	226.85
917.79	226.84
918.09	226.88
918.39	226.92
918.70	226.90
919.00	226.91
919.30	227.00
919.60	226.97
919.91	226.96
920.21	226.98
920.51	226.94
920.81	226.91
921.12	226.94
921.42	226.93
921.72	226.94
922.02	226.94
922.32	226.97
922.63	226.98
922.93	227.07
923.23	227.08
923.53	227.07
923.83	226.96
924.13	226.98
924.44	226.98
924.74	227.00
925.04	227.04
925.34	227.04
925.64	226.96
925.94	226.98
926.24	227.08
926.55	227.07
926.85	227.09
927.15	227.09
927.45	227.10
927.75	227.10
928.05	227.10
928.35	227.10
928.65	227.12
928.95	227.13
929.26	227.04
929.56	227.07
929.86	227.09
930.16	227.07
930.46	227.05
930.76	227.04
931.06	226.96
931.36	226.92
931.66	226.94
931.96	226.97
932.26	226.99
932.56	226.90
932.86	226.91
933.16	226.91
933.46	226.90
933.76	226.86
934.06	226.89
934.36	226.96
934.66	226.94
934.96	226.92
935.26	226.93
935.56	226.94
935.86	226.90
936.16	226.87
936.46	226.87
936.76	226.85
937.06	226.83
937.36	226.85
937.66	226.84
937.96	226.83
938.26	226.79
938.56	226.76
938.86	226.77
939.16	226.82
939.46	226.82
939.76	226.83
940.06	226.84
940.35	226.80
940.65	226.70
940.95	226.73
941.25	226.68
941.55	226.67
941.85	226.66
942.15	226.70
942.45	226.75
942.75	226.74
943.04	226.74
943.34	226.78
943.64	226.76
943.94	226.74
944.24	226.74
944.54	226.75
944.84	226.75
945.13	226.72
945.43	226.68
945.73	226.68
946.03	226.66
946.33	226.65
946.62	226.63
946.92	226.65
947.22	226.65
947.52	226.66
947.82	226.68
948.11	226.67
948.41	226.63
948.71	226.58
949.01	226.59
949.31	226.57
949.60	226.54
949.90	226.58
950.20	226.57
950.50	226.57
950.79	226.56
951.09	226.59
951.39	226.59
951.69	226.58
951.98	226.62
952.28	226.63
952.58	226.62
952.87	226.63
953.17	226.64
953.47	226.62
953.76	226.62
954.06	226.59
954.36	226.58
954.66	226.59
954.95	226.64
955.25	226.65
955.55	226.68
955.84	226.66
956.14	226.67
956.44	226.69
956.73	226.67
957.03	226.68
957.32	226.67
957.62	226.65
957.92	226.70
958.21	226.66
958.51	226.86
958.81	226.89
959.10	226.90
959.40	226.94
959.69	226.96
959.99	226.98
960.29	226.98
960.58	226.97
960.88	227.02
961.17	226.99
961.47	227.01
961.76	226.99
962.06	227.01
962.36	226.99
962.65	226.98
962.95	226.99
963.24	226.98
963.54	226.99
963.83	227.01
964.13	226.99
964.42	226.98
964.72	226.84
965.01	226.84
965.31	226.83
965.60	226.78
965.90	226.90
966.19	226.86
966.49	226.88
966.78	226.88
967.08	226.87
967.37	226.88
967.67	226.85
967.96	226.88
968.26	226.88
968.55	226.90
968.85	226.91
969.14	226.92
969.43	226.92
969.73	226.91
970.02	226.90
970.32	226.90
970.61	226.87
970.91	226.81
971.20	226.78
971.49	226.77
971.79	226.79
972.08	226.67
972.38	226.70
972.67	226.67
972.96	226.69
973.26	226.65
973.55	226.70
973.85	226.69
974.14	226.66
974.43	226.68
974.73	226.65
975.02	226.63
975.31	226.62
975.61	226.62
975.90	226.61
976.19	226.59
976.49	226.59
976.78	226.62
977.07	226.64
977.37	226.66
977.66	226.68
977.95	226.65
978.24	226.67
978.54	226.69
978.83	226.68
979.12	226.68
979.42	226.69
979.71	226.65
980.00	226.64
980.29	226.65
980.59	226.61
980.88	226.66
981.17	226.65
981.46	226.66
981.76	226.66
982.05	226.72
982.34	226.74
982.63	226.74
982.93	226.73
983.22	226.77
983.51	226.78
983.80	226.79
984.09	226.82
984.39	226.80
984.68	226.77
984.97	226.78
985.26	226.76
985.55	226.77
985.85	226.74
986.14	226.78
986.43	226.81
986.72	226.80
987.01	226.74
987.30	226.74
987.59	226.72
987.89	226.74
988.18	226.68
988.47	226.65
988.76	226.64
989.05	226.61
989.34	226.57
989.63	226.60
989.92	226.57
990.22	226.54
990.51	226.53
990.80	226.53
991.09	226.55
991.38	226.56
991.67	226.55
991.96	226.55
992.25	226.54
992.54	226.51
992.83	226.52
993.12	226.52
993.41	226.55
993.70	226.63
993.99	226.65
994.28	226.68
994.58	226.71
994.87	226.70
995.16	226.72
995.45	226.71
995.74	226.65
996.03	226.68
996.32	226.71
996.61	226.75
996.90	226.75
997.19	226.73
997.48	226.74
997.77	226.72
998.06	226.73
998.34	226.71
998.63	226.71
998.92	226.72
999.21	226.76
999.50	226.75
999.79	226.70
1000.08	226.69
1000.37	226.69
1000.66	226.66
1000.95	226.70
1001.24	226.70
1001.53	226.74
1001.82	226.74
1002.11	226.69
1002.40	226.71
1002.68	226.74
1002.97	226.87
1003.26	226.86
1003.55	226.83
1003.84	226.85
1004.13	226.90
1004.42	226.91
1004.71	226.90
1004.99	226.90
1005.28	226.92
1005.57	226.91
1005.86	226.90
1006.15	226.87
1006.44	226.84
1006.72	226.88
1007.01	226.84
1007.30	226.84
1007.59	226.81
1007.88	226.81
1008.17	226.82
1008.45	226.79
1008.74	226.71
1009.03	226.62
1009.32	226.61
1009.60	226.61
1009.89	226.59
1010.18	226.51
1010.47	226.49
1010.76	226.49
1011.04	226.49
1011.33	226.48
1011.62	226.49
1011.91	226.50
1012.19	226.51
1012.48	226.52
1012.77	226.50
1013.05	226.58
1013.34	226.57
1013.63	226.56
1013.92	226.57
1014.20	226.56
1014.49	226.58
1014.78	226.61
1015.06	226.55
1015.35	226.55
1015.64	226.58
1015.92	226.62
1016.21	226.62
1016.50	226.63
1016.78	226.65
1017.07	226.66
1017.36	226.63
1017.64	226.60
1017.93	226.61
1018.22	226.59
1018.50	226.59
1018.79	226.59
1019.08	226.52
1019.36	226.53
1019.65	226.51
1019.93	226.55
1020.22	226.58
1020.51	226.66
1020.79	226.62
1021.08	226.32
1021.36	226.25
1021.65	226.66
1021.94	226.40
1022.22	226.77
1022.51	226.16
1022.79	227.29
1023.08	226.77
1023.36	228.65
1023.65	226.01
>>>>>End Processed Spectral Data<<<<<
