SpectraSuite Data File
++++++++++++++++++++++++++++++++++++
Date: Tue Oct 06 22:56:05 EDT 2015
User: lab3
Dark Spectrum Present: No
Reference Spectrum Present: No
Number of Sampled Component Spectra: 1
Spectrometers: USB2E7196
Integration Time (usec): 66000 (USB2E7196)
Spectra Averaged: 10000 (USB2E7196)
Boxcar Smoothing: 10 (USB2E7196)
Correct for Electrical Dark: No (USB2E7196)
Strobe/Lamp Enabled: No (USB2E7196)
Correct for Detector Non-linearity: No (USB2E7196)
Correct for Stray Light: No (USB2E7196)
Number of Pixels in Processed Spectrum: 2048
>>>>>Begin Processed Spectral Data<<<<<
339.09	0.00
339.48	214.03
339.86	215.49
340.24	216.85
340.63	218.29
341.01	222.38
341.39	221.01
341.78	222.52
342.16	223.78
342.54	224.04
342.93	212.58
343.31	223.32
343.69	223.86
344.07	224.32
344.46	224.77
344.84	225.17
345.22	225.37
345.60	225.65
345.99	225.85
346.37	225.99
346.75	226.12
347.13	226.20
347.52	226.30
347.90	226.42
348.28	226.47
348.66	226.56
349.05	226.55
349.43	226.63
349.81	226.70
350.19	226.77
350.57	226.85
350.96	226.95
351.34	227.06
351.72	227.17
352.10	227.29
352.48	227.36
352.87	227.41
353.25	227.48
353.63	227.53
354.01	227.59
354.39	227.67
354.77	227.75
355.15	227.87
355.54	227.91
355.92	227.91
356.30	227.99
356.68	228.18
357.06	228.26
357.44	228.29
357.82	228.35
358.20	228.56
358.58	228.62
358.97	228.69
359.35	228.79
359.73	228.88
360.11	228.93
360.49	228.99
360.87	229.04
361.25	229.11
361.63	229.22
362.01	229.28
362.39	229.31
362.77	229.36
363.15	229.38
363.53	229.42
363.91	229.46
364.29	229.49
364.67	229.33
365.05	229.36
365.43	229.40
365.81	229.44
366.19	229.39
366.57	229.47
366.95	229.47
367.33	229.43
367.71	229.42
368.09	229.46
368.47	229.45
368.85	229.44
369.23	229.47
369.61	229.39
369.99	229.43
370.37	229.44
370.75	229.56
371.13	229.52
371.51	229.48
371.89	229.47
372.27	229.45
372.65	229.44
373.03	229.40
373.41	229.36
373.78	229.30
374.16	229.17
374.54	229.08
374.92	229.02
375.30	228.99
375.68	228.91
376.06	228.86
376.44	228.80
376.82	228.77
377.19	228.72
377.57	228.67
377.95	228.56
378.33	228.50
378.71	228.29
379.09	228.25
379.47	228.23
379.84	228.16
380.22	228.09
380.60	228.02
380.98	227.98
381.36	227.93
381.73	227.86
382.11	227.86
382.49	227.82
382.87	227.75
383.25	227.72
383.62	227.89
384.00	227.82
384.38	227.79
384.76	227.79
385.13	227.81
385.51	227.77
385.89	227.72
386.27	227.70
386.64	227.69
387.02	227.64
387.40	227.60
387.78	227.58
388.15	227.57
388.53	227.55
388.91	227.52
389.29	227.49
389.66	227.50
390.04	227.46
390.42	227.47
390.79	227.47
391.17	227.46
391.55	227.24
391.92	227.24
392.30	227.25
392.68	227.21
393.05	227.19
393.43	227.20
393.81	227.22
394.18	227.20
394.56	227.21
394.94	227.27
395.31	227.27
395.69	227.34
396.06	227.39
396.44	227.43
396.82	227.46
397.19	227.59
397.57	227.61
397.95	227.68
398.32	227.68
398.70	227.75
399.07	227.85
399.45	227.91
399.82	227.98
400.20	228.04
400.58	228.13
400.95	228.15
401.33	228.28
401.70	228.50
402.08	228.65
402.45	228.78
402.83	228.95
403.20	229.12
403.58	229.26
403.95	229.47
404.33	229.69
404.71	229.91
405.08	230.22
405.46	230.46
405.83	230.74
406.21	231.03
406.58	231.36
406.96	231.68
407.33	232.06
407.70	232.49
408.08	233.06
408.45	233.57
408.83	234.12
409.20	234.62
409.58	235.07
409.95	235.70
410.33	236.37
410.70	237.02
411.08	237.77
411.45	238.58
411.82	239.39
412.20	240.33
412.57	241.43
412.95	242.31
413.32	243.46
413.69	244.64
414.07	245.89
414.44	247.25
414.82	248.64
415.19	250.27
415.56	251.93
415.94	253.66
416.31	255.60
416.68	257.55
417.06	259.80
417.43	261.91
417.81	264.34
418.18	266.82
418.55	269.52
418.93	272.33
419.30	275.26
419.67	278.38
420.04	281.58
420.42	284.93
420.79	288.80
421.16	292.70
421.54	296.65
421.91	300.78
422.28	305.08
422.66	309.70
423.03	314.10
423.40	318.70
423.77	323.63
424.15	328.67
424.52	333.91
424.89	339.57
425.26	345.19
425.64	350.40
426.01	356.25
426.38	362.23
426.75	368.38
427.13	374.67
427.50	381.25
427.87	388.09
428.24	394.98
428.61	401.57
428.99	408.68
429.36	416.48
429.73	423.94
430.10	431.38
430.47	438.99
430.85	446.85
431.22	455.22
431.59	463.81
431.96	472.21
432.33	481.54
432.70	490.41
433.08	500.90
433.45	510.79
433.82	520.58
434.19	531.55
434.56	542.34
434.93	552.82
435.30	563.20
435.68	574.97
436.05	586.48
436.42	598.02
436.79	608.58
437.16	620.05
437.53	632.30
437.90	644.56
438.27	656.60
438.64	669.63
439.01	681.46
439.38	692.30
439.75	702.80
440.13	714.77
440.50	726.14
440.87	735.26
441.24	745.28
441.61	756.27
441.98	764.41
442.35	774.08
442.72	783.93
443.09	793.33
443.46	799.46
443.83	804.15
444.20	808.08
444.57	813.67
444.94	817.05
445.31	820.56
445.68	823.61
446.05	825.93
446.42	825.76
446.79	825.33
447.16	825.03
447.53	824.79
447.90	821.39
448.27	818.21
448.64	813.06
449.01	809.57
449.37	802.10
449.74	795.32
450.11	786.53
450.48	776.85
450.85	767.10
451.22	758.76
451.59	750.53
451.96	743.08
452.33	732.28
452.70	722.64
453.07	710.93
453.43	699.24
453.80	687.82
454.17	676.87
454.54	666.79
454.91	655.38
455.28	644.59
455.65	634.41
456.02	623.61
456.38	614.90
456.75	603.77
457.12	594.79
457.49	585.75
457.86	577.17
458.23	569.61
458.59	561.29
458.96	552.76
459.33	545.26
459.70	537.62
460.07	531.78
460.43	524.91
460.80	518.49
461.17	512.90
461.54	506.87
461.91	501.19
462.27	495.43
462.64	490.71
463.01	485.34
463.38	479.92
463.74	475.03
464.11	470.68
464.48	466.75
464.85	462.53
465.21	459.27
465.58	455.67
465.95	451.58
466.32	448.34
466.68	445.16
467.05	441.96
467.42	438.84
467.78	435.50
468.15	432.43
468.52	430.17
468.88	427.17
469.25	424.43
469.62	422.28
469.98	419.94
470.35	417.85
470.72	415.96
471.08	414.04
471.45	412.43
471.82	410.64
472.18	408.76
472.55	407.54
472.92	406.02
473.28	404.83
473.65	403.56
474.02	402.32
474.38	401.28
474.75	400.66
475.11	399.82
475.48	399.42
475.85	398.97
476.21	398.70
476.58	398.51
476.94	398.66
477.31	398.68
477.67	398.73
478.04	399.01
478.41	399.41
478.77	400.00
479.14	400.35
479.50	401.11
479.87	402.08
480.23	403.03
480.60	403.94
480.96	404.85
481.33	406.25
481.69	407.63
482.06	409.00
482.42	410.24
482.79	411.80
483.15	413.63
483.52	415.69
483.88	417.65
484.25	419.73
484.61	421.93
484.98	424.29
485.34	426.97
485.71	429.76
486.07	432.75
486.44	435.68
486.80	439.00
487.17	442.39
487.53	446.08
487.90	449.94
488.26	454.15
488.62	458.59
488.99	463.01
489.35	467.67
489.72	472.66
490.08	477.93
490.44	483.30
490.81	488.90
491.17	494.66
491.54	500.86
491.90	507.19
492.26	513.95
492.63	521.04
492.99	528.45
493.36	536.01
493.72	543.95
494.08	552.12
494.45	560.68
494.81	569.63
495.17	578.83
495.54	588.54
495.90	598.68
496.26	609.01
496.63	619.65
496.99	630.68
497.35	642.22
497.72	654.05
498.08	666.23
498.44	678.71
498.80	691.90
499.17	705.38
499.53	719.30
499.89	733.68
500.26	748.28
500.62	763.22
500.98	779.03
501.34	794.88
501.71	811.51
502.07	828.45
502.43	845.88
502.79	863.52
503.16	881.66
503.52	900.01
503.88	918.80
504.24	938.04
504.60	957.55
504.97	977.70
505.33	998.34
505.69	1020.03
506.05	1042.00
506.41	1063.90
506.78	1085.96
507.14	1108.58
507.50	1131.71
507.86	1155.21
508.22	1178.96
508.59	1202.63
508.95	1227.34
509.31	1252.57
509.67	1278.46
510.03	1304.28
510.39	1330.04
510.75	1355.88
511.12	1382.10
511.48	1408.60
511.84	1435.05
512.20	1461.91
512.56	1489.83
512.92	1517.60
513.28	1544.73
513.64	1572.29
514.00	1600.25
514.37	1628.48
514.73	1656.78
515.09	1684.39
515.45	1712.34
515.81	1740.53
516.17	1768.50
516.53	1795.80
516.89	1822.85
517.25	1850.24
517.61	1877.40
517.97	1905.27
518.33	1932.61
518.69	1959.85
519.05	1987.49
519.41	2015.32
519.77	2043.20
520.13	2069.55
520.49	2095.90
520.85	2122.68
521.21	2148.84
521.57	2175.36
521.93	2200.81
522.29	2226.93
522.65	2252.94
523.01	2278.64
523.37	2303.55
523.73	2329.23
524.09	2354.63
524.45	2379.84
524.81	2404.33
525.17	2428.81
525.53	2452.35
525.89	2476.33
526.25	2499.99
526.61	2521.93
526.97	2543.94
527.33	2565.73
527.68	2587.42
528.04	2608.77
528.40	2628.92
528.76	2649.16
529.12	2668.88
529.48	2689.32
529.84	2706.95
530.20	2724.92
530.56	2742.17
530.91	2759.61
531.27	2776.38
531.63	2792.25
531.99	2807.77
532.35	2823.10
532.71	2837.95
533.07	2853.24
533.42	2866.54
533.78	2880.00
534.14	2894.59
534.50	2908.03
534.86	2921.94
535.21	2933.61
535.57	2945.12
535.93	2956.36
536.29	2965.73
536.65	2975.04
537.00	2982.97
537.36	2992.23
537.72	3000.60
538.08	3008.44
538.44	3015.01
538.79	3021.37
539.15	3026.38
539.51	3030.59
539.87	3033.50
540.22	3034.79
540.58	3036.35
540.94	3038.68
541.29	3039.89
541.65	3039.74
542.01	3039.13
542.37	3036.82
542.72	3036.18
543.08	3033.73
543.44	3031.49
543.79	3029.14
544.15	3025.88
544.51	3022.53
544.87	3018.29
545.22	3012.99
545.58	3007.42
545.94	3002.09
546.29	2995.24
546.65	2988.57
547.01	2982.14
547.36	2976.26
547.72	2970.48
548.07	2962.92
548.43	2954.14
548.79	2945.08
549.14	2936.20
549.50	2927.52
549.86	2917.88
550.21	2906.49
550.57	2896.46
550.92	2884.59
551.28	2872.91
551.64	2861.63
551.99	2850.11
552.35	2838.05
552.70	2825.86
553.06	2814.18
553.41	2802.10
553.77	2789.73
554.13	2777.35
554.48	2763.74
554.84	2749.05
555.19	2734.84
555.55	2720.58
555.90	2706.90
556.26	2693.41
556.61	2678.86
556.97	2663.15
557.32	2647.95
557.68	2633.11
558.03	2617.80
558.39	2603.50
558.74	2589.94
559.10	2574.33
559.45	2558.79
559.81	2543.94
560.16	2528.75
560.52	2513.19
560.87	2497.86
561.23	2482.12
561.58	2467.02
561.94	2451.45
562.29	2435.44
562.64	2419.55
563.00	2403.71
563.35	2388.02
563.71	2371.98
564.06	2356.02
564.42	2340.61
564.77	2325.32
565.12	2309.63
565.48	2293.63
565.83	2277.82
566.19	2261.87
566.54	2246.21
566.89	2230.10
567.25	2213.98
567.60	2198.67
567.96	2182.71
568.31	2165.30
568.66	2148.77
569.02	2132.80
569.37	2117.42
569.72	2102.63
570.08	2087.36
570.43	2071.48
570.78	2055.40
571.14	2039.17
571.49	2022.93
571.84	2006.99
572.20	1989.74
572.55	1973.31
572.90	1957.06
573.26	1940.86
573.61	1924.01
573.96	1907.69
574.31	1891.18
574.67	1874.32
575.02	1857.17
575.37	1840.03
575.72	1823.80
576.08	1807.22
576.43	1789.86
576.78	1772.76
577.13	1755.89
577.49	1739.22
577.84	1723.09
578.19	1706.46
578.54	1689.87
578.90	1673.14
579.25	1656.22
579.60	1640.63
579.95	1624.72
580.30	1608.72
580.66	1592.43
581.01	1576.22
581.36	1560.11
581.71	1544.89
582.06	1529.72
582.42	1514.32
582.77	1499.39
583.12	1484.67
583.47	1470.01
583.82	1455.49
584.17	1440.41
584.53	1425.41
584.88	1410.79
585.23	1395.97
585.58	1381.58
585.93	1367.02
586.28	1353.57
586.63	1339.95
586.98	1325.82
587.34	1312.15
587.69	1298.27
588.04	1284.73
588.39	1271.49
588.74	1257.85
589.09	1244.32
589.44	1230.47
589.79	1217.28
590.14	1204.12
590.49	1191.00
590.84	1178.12
591.19	1165.64
591.54	1153.31
591.89	1140.56
592.25	1128.13
592.60	1115.58
592.95	1103.15
593.30	1091.20
593.65	1078.92
594.00	1066.94
594.35	1055.92
594.70	1044.12
595.05	1032.99
595.40	1021.68
595.75	1010.21
596.10	999.42
596.45	988.60
596.80	978.20
597.15	967.76
597.50	957.31
597.85	947.17
598.19	937.04
598.54	926.87
598.89	917.26
599.24	908.06
599.59	898.62
599.94	889.90
600.29	881.22
600.64	872.29
600.99	863.23
601.34	854.55
601.69	845.32
602.04	837.07
602.39	828.68
602.74	820.52
603.08	812.50
603.43	804.46
603.78	796.41
604.13	788.41
604.48	780.45
604.83	772.74
605.18	765.10
605.53	757.62
605.87	750.13
606.22	742.75
606.57	735.28
606.92	727.77
607.27	720.26
607.62	712.96
607.96	705.93
608.31	699.44
608.66	692.82
609.01	686.49
609.36	680.11
609.70	673.71
610.05	667.29
610.40	661.07
610.75	654.82
611.10	648.81
611.44	642.81
611.79	636.95
612.14	630.99
612.49	625.11
612.83	619.55
613.18	614.04
613.53	608.53
613.88	603.17
614.22	598.19
614.57	593.15
614.92	588.21
615.27	583.39
615.61	578.43
615.96	573.53
616.31	568.62
616.65	563.87
617.00	559.24
617.35	554.71
617.70	550.18
618.04	545.78
618.39	541.50
618.74	537.47
619.08	533.41
619.43	529.49
619.78	525.52
620.12	521.50
620.47	517.71
620.82	514.03
621.16	510.37
621.51	506.77
621.85	503.15
622.20	499.60
622.55	496.05
622.89	492.54
623.24	489.22
623.59	485.97
623.93	482.81
624.28	479.78
624.62	476.94
624.97	474.13
625.32	471.24
625.66	468.30
626.01	465.32
626.35	462.53
626.70	459.67
627.04	457.03
627.39	454.36
627.73	451.76
628.08	449.19
628.43	446.66
628.77	444.05
629.12	441.57
629.46	439.21
629.81	436.98
630.15	434.69
630.50	432.41
630.84	430.20
631.19	428.02
631.53	425.93
631.88	423.67
632.22	421.49
632.57	419.63
632.91	417.72
633.26	415.89
633.60	414.07
633.95	412.35
634.29	410.49
634.64	408.69
634.98	406.79
635.32	405.07
635.67	403.52
636.01	401.95
636.36	400.44
636.70	399.00
637.05	397.40
637.39	395.97
637.73	394.53
638.08	393.16
638.42	391.82
638.77	390.36
639.11	388.87
639.45	387.44
639.80	385.95
640.14	384.54
640.49	383.14
640.83	381.74
641.17	380.40
641.52	379.08
641.86	377.81
642.20	376.68
642.55	375.37
642.89	374.08
643.23	372.86
643.58	371.77
643.92	370.52
644.26	369.37
644.61	368.26
644.95	367.11
645.29	365.90
645.64	364.67
645.98	363.57
646.32	362.59
646.66	361.53
647.01	360.51
647.35	359.59
647.69	358.61
648.04	357.72
648.38	356.76
648.72	355.86
649.06	354.95
649.41	354.00
649.75	353.12
650.09	352.27
650.43	351.39
650.78	350.47
651.12	349.62
651.46	348.77
651.80	347.94
652.14	347.17
652.49	346.45
652.83	345.67
653.17	344.86
653.51	344.08
653.85	343.41
654.20	342.69
654.54	341.87
654.88	341.11
655.22	340.39
655.56	339.65
655.90	338.95
656.25	338.25
656.59	337.58
656.93	336.95
657.27	336.37
657.61	335.70
657.95	335.10
658.29	334.48
658.64	333.87
658.98	333.21
659.32	332.56
659.66	331.94
660.00	331.39
660.34	330.82
660.68	330.20
661.02	329.52
661.36	328.89
661.70	328.31
662.05	327.74
662.39	327.19
662.73	326.72
663.07	326.28
663.41	325.80
663.75	325.27
664.09	324.74
664.43	324.09
664.77	323.55
665.11	322.96
665.45	322.42
665.79	321.92
666.13	321.39
666.47	320.84
666.81	320.26
667.15	319.65
667.49	319.17
667.83	318.74
668.17	318.29
668.51	317.86
668.85	317.45
669.19	317.10
669.53	316.56
669.87	316.00
670.21	315.44
670.55	314.92
670.89	314.51
671.23	314.05
671.57	313.65
671.91	313.30
672.25	312.96
672.58	312.62
672.92	312.19
673.26	311.85
673.60	311.50
673.94	311.13
674.28	310.80
674.62	310.43
674.96	310.00
675.30	309.62
675.64	309.19
675.97	308.73
676.31	308.25
676.65	307.84
676.99	307.52
677.33	307.08
677.67	306.69
678.01	306.21
678.34	305.80
678.68	305.42
679.02	304.97
679.36	304.52
679.70	304.06
680.04	303.66
680.37	303.24
680.71	302.85
681.05	302.50
681.39	302.08
681.73	301.62
682.06	301.20
682.40	300.81
682.74	300.45
683.08	300.15
683.42	299.77
683.75	299.43
684.09	298.96
684.43	298.58
684.77	298.17
685.10	297.80
685.44	297.40
685.78	296.98
686.12	296.59
686.45	296.17
686.79	295.73
687.13	295.33
687.46	294.88
687.80	294.46
688.14	293.99
688.48	293.57
688.81	293.15
689.15	292.78
689.49	292.33
689.82	291.89
690.16	291.34
690.50	290.89
690.83	290.44
691.17	289.98
691.51	289.55
691.84	289.15
692.18	288.70
692.52	288.24
692.85	287.79
693.19	287.41
693.52	286.97
693.86	286.53
694.20	286.10
694.53	285.67
694.87	285.19
695.21	284.74
695.54	284.29
695.88	283.83
696.21	283.33
696.55	282.88
696.88	282.43
697.22	282.01
697.56	281.60
697.89	281.12
698.23	280.70
698.56	280.25
698.90	279.83
699.23	279.36
699.57	278.96
699.90	278.53
700.24	278.06
700.58	277.65
700.91	277.29
701.25	277.03
701.58	276.71
701.92	276.36
702.25	275.99
702.59	275.57
702.92	275.18
703.26	274.76
703.59	274.35
703.93	274.07
704.26	273.68
704.60	273.26
704.93	272.86
705.26	272.45
705.60	272.09
705.93	271.64
706.27	271.32
706.60	270.98
706.94	270.65
707.27	270.22
707.61	269.83
707.94	269.39
708.27	268.83
708.61	268.36
708.94	267.93
709.28	267.54
709.61	267.16
709.94	266.81
710.28	266.47
710.61	266.14
710.95	265.62
711.28	265.38
711.61	265.01
711.95	264.70
712.28	264.33
712.61	263.95
712.95	263.70
713.28	263.41
713.61	263.01
713.95	262.62
714.28	262.30
714.61	261.94
714.95	261.61
715.28	261.27
715.61	260.95
715.95	260.65
716.28	260.32
716.61	260.04
716.95	259.70
717.28	259.38
717.61	259.06
717.94	258.77
718.28	258.34
718.61	258.04
718.94	257.71
719.27	257.42
719.61	257.15
719.94	256.82
720.27	256.44
720.60	256.16
720.94	255.87
721.27	255.60
721.60	255.36
721.93	255.07
722.27	254.85
722.60	254.57
722.93	254.27
723.26	254.02
723.59	253.72
723.93	253.48
724.26	253.24
724.59	252.97
724.92	252.73
725.25	252.53
725.59	252.29
725.92	252.07
726.25	251.82
726.58	251.57
726.91	251.32
727.24	251.10
727.57	250.86
727.91	250.59
728.24	250.37
728.57	250.13
728.90	249.92
729.23	249.63
729.56	249.49
729.89	249.28
730.22	249.04
730.55	248.83
730.89	248.60
731.22	248.38
731.55	248.17
731.88	247.96
732.21	247.71
732.54	247.49
732.87	247.29
733.20	247.10
733.53	246.91
733.86	246.74
734.19	246.52
734.52	246.37
734.85	246.32
735.18	246.11
735.51	245.97
735.84	245.80
736.17	245.68
736.50	245.40
736.83	245.43
737.16	245.26
737.49	245.09
737.82	244.90
738.15	244.74
738.48	244.56
738.81	244.37
739.14	244.18
739.47	244.00
739.80	243.82
740.13	243.66
740.46	243.45
740.79	243.25
741.12	243.08
741.45	242.87
741.78	242.60
742.11	242.48
742.44	242.26
742.77	242.11
743.10	241.91
743.43	241.75
743.75	241.40
744.08	241.51
744.41	241.33
744.74	241.18
745.07	240.98
745.40	240.87
745.73	240.80
746.06	240.67
746.39	240.55
746.71	240.39
747.04	240.23
747.37	240.08
747.70	239.97
748.03	239.84
748.36	239.74
748.68	239.60
749.01	239.41
749.34	239.29
749.67	239.16
750.00	239.05
750.33	239.06
750.65	238.94
750.98	238.55
751.31	238.43
751.64	238.33
751.97	238.31
752.29	238.16
752.62	237.96
752.95	237.82
753.28	237.68
753.60	237.55
753.93	237.47
754.26	237.38
754.59	237.20
754.91	237.07
755.24	236.93
755.57	236.82
755.90	236.70
756.22	236.56
756.55	236.41
756.88	236.26
757.20	236.03
757.53	235.86
757.86	235.75
758.19	235.65
758.51	235.54
758.84	235.34
759.17	235.22
759.49	235.12
759.82	235.11
760.15	235.03
760.47	234.93
760.80	234.78
761.13	234.70
761.45	234.61
761.78	234.52
762.11	234.43
762.43	234.32
762.76	234.22
763.08	234.16
763.41	234.09
763.74	234.02
764.06	233.93
764.39	233.85
764.71	233.76
765.04	233.66
765.37	233.57
765.69	233.48
766.02	233.40
766.34	233.31
766.67	233.16
767.00	233.12
767.32	233.14
767.65	233.18
767.97	233.09
768.30	233.03
768.62	232.96
768.95	232.87
769.27	232.79
769.60	232.75
769.92	232.65
770.25	232.55
770.57	232.45
770.90	232.38
771.22	232.31
771.55	232.25
771.87	232.21
772.20	232.14
772.52	232.23
772.85	232.39
773.17	232.34
773.50	232.27
773.82	232.18
774.15	232.04
774.47	231.87
774.80	231.80
775.12	231.74
775.45	231.68
775.77	231.64
776.09	231.60
776.42	231.55
776.74	231.56
777.07	231.51
777.39	231.47
777.72	231.41
778.04	231.39
778.36	231.33
778.69	231.28
779.01	231.26
779.33	231.06
779.66	230.81
779.98	230.75
780.31	230.72
780.63	230.75
780.95	230.74
781.28	230.70
781.60	230.64
781.92	230.60
782.25	230.57
782.57	230.53
782.89	230.48
783.22	230.43
783.54	230.36
783.86	230.34
784.19	230.29
784.51	230.31
784.83	230.24
785.16	230.20
785.48	230.17
785.80	230.13
786.12	230.11
786.45	230.07
786.77	230.05
787.09	230.00
787.42	229.91
787.74	229.87
788.06	229.85
788.38	229.82
788.71	229.78
789.03	229.75
789.35	229.74
789.67	229.69
789.99	229.67
790.32	229.62
790.64	229.61
790.96	229.75
791.28	229.66
791.61	229.63
791.93	229.61
792.25	229.58
792.57	229.67
792.89	229.62
793.21	229.60
793.54	229.56
793.86	229.51
794.18	229.50
794.50	229.44
794.82	229.41
795.14	229.41
795.47	229.42
795.79	229.39
796.11	229.33
796.43	229.30
796.75	229.27
797.07	229.26
797.39	229.22
797.71	229.04
798.04	229.03
798.36	229.02
798.68	228.99
799.00	228.98
799.32	228.86
799.64	228.87
799.96	228.85
800.28	228.86
800.60	228.83
800.92	228.82
801.24	228.79
801.56	228.79
801.89	228.75
802.21	228.73
802.53	228.69
802.85	228.71
803.17	228.77
803.49	228.71
803.81	228.68
804.13	228.65
804.45	228.61
804.77	228.60
805.09	228.58
805.41	228.55
805.73	228.50
806.05	228.44
806.37	228.40
806.69	228.37
807.01	228.33
807.33	228.33
807.65	228.25
807.97	228.31
808.28	228.27
808.60	228.25
808.92	228.20
809.24	228.29
809.56	228.24
809.88	228.16
810.20	228.16
810.52	228.18
810.84	228.14
811.16	228.11
811.48	228.08
811.80	228.13
812.12	228.11
812.43	228.14
812.75	228.14
813.07	228.11
813.39	228.10
813.71	228.06
814.03	228.03
814.35	228.02
814.67	227.94
814.98	227.91
815.30	227.90
815.62	227.86
815.94	227.73
816.26	227.74
816.58	227.69
816.89	227.69
817.21	227.64
817.53	227.64
817.85	227.63
818.17	227.62
818.48	227.53
818.80	227.56
819.12	227.51
819.44	227.46
819.76	227.43
820.07	227.42
820.39	227.41
820.71	227.41
821.03	227.40
821.34	227.38
821.66	227.39
821.98	227.39
822.30	227.38
822.61	227.49
822.93	227.45
823.25	227.44
823.57	227.41
823.88	227.42
824.20	227.41
824.52	227.43
824.83	227.42
825.15	227.39
825.47	227.37
825.79	227.37
826.10	227.36
826.42	227.35
826.74	227.36
827.05	227.35
827.37	227.34
827.69	227.33
828.00	227.32
828.32	227.31
828.64	227.28
828.95	227.37
829.27	227.30
829.58	227.30
829.90	227.32
830.22	227.32
830.53	227.28
830.85	227.26
831.17	227.21
831.48	227.20
831.80	227.20
832.11	227.19
832.43	227.16
832.75	227.15
833.06	227.26
833.38	227.20
833.69	227.19
834.01	227.19
834.32	227.18
834.64	227.16
834.96	227.15
835.27	227.15
835.59	227.08
835.90	227.05
836.22	227.04
836.53	227.00
836.85	226.97
837.16	227.15
837.48	227.15
837.79	227.20
838.11	227.21
838.42	227.20
838.74	227.22
839.05	227.20
839.37	227.19
839.68	227.07
840.00	227.06
840.31	227.08
840.63	227.05
840.94	227.03
841.26	227.01
841.57	227.00
841.88	227.01
842.20	226.98
842.51	226.95
842.83	226.94
843.14	227.11
843.46	227.09
843.77	226.98
844.08	226.97
844.40	226.91
844.71	226.88
845.03	226.86
845.34	226.84
845.65	226.83
845.97	226.83
846.28	226.84
846.60	226.85
846.91	226.82
847.22	226.81
847.54	226.85
847.85	226.86
848.16	226.84
848.48	226.81
848.79	226.87
849.10	226.89
849.42	226.90
849.73	226.72
850.04	226.72
850.36	226.65
850.67	226.68
850.98	226.69
851.30	226.70
851.61	226.70
851.92	226.69
852.23	226.74
852.55	226.74
852.86	226.74
853.17	226.75
853.49	226.79
853.80	226.82
854.11	226.82
854.42	226.84
854.74	226.82
855.05	226.83
855.36	226.73
855.67	226.73
855.99	226.73
856.30	226.94
856.61	226.93
856.92	226.93
857.23	226.93
857.55	226.91
857.86	226.89
858.17	226.92
858.48	226.89
858.79	226.85
859.11	226.86
859.42	226.85
859.73	226.82
860.04	226.81
860.35	226.75
860.66	226.69
860.98	226.67
861.29	226.70
861.60	226.68
861.91	226.73
862.22	226.70
862.53	226.67
862.84	226.45
863.16	226.49
863.47	226.46
863.78	226.43
864.09	226.45
864.40	226.46
864.71	226.46
865.02	226.49
865.33	226.46
865.64	226.43
865.95	226.43
866.27	226.54
866.58	226.52
866.89	226.55
867.20	226.55
867.51	226.52
867.82	226.50
868.13	226.56
868.44	226.51
868.75	226.55
869.06	226.56
869.37	226.59
869.68	226.53
869.99	226.57
870.30	226.57
870.61	226.58
870.92	226.56
871.23	226.54
871.54	226.56
871.85	226.60
872.16	226.62
872.47	226.61
872.78	226.51
873.09	226.53
873.40	226.51
873.71	226.53
874.02	226.54
874.33	226.52
874.64	226.47
874.95	226.51
875.26	226.46
875.56	226.46
875.87	226.44
876.18	226.43
876.49	226.61
876.80	226.59
877.11	226.56
877.42	226.57
877.73	226.57
878.04	226.53
878.35	226.53
878.66	226.52
878.96	226.52
879.27	226.51
879.58	226.50
879.89	226.49
880.20	226.53
880.51	226.52
880.82	226.52
881.12	226.53
881.43	226.49
881.74	226.48
882.05	226.47
882.36	226.48
882.67	226.50
882.97	226.30
883.28	226.29
883.59	226.29
883.90	226.30
884.21	226.33
884.51	226.32
884.82	226.29
885.13	226.29
885.44	226.28
885.74	226.28
886.05	226.28
886.36	226.28
886.67	226.22
886.98	226.31
887.28	226.32
887.59	226.32
887.90	226.33
888.20	226.32
888.51	226.36
888.82	226.32
889.13	226.33
889.43	226.49
889.74	226.48
890.05	226.48
890.35	226.46
890.66	226.42
890.97	226.41
891.28	226.39
891.58	226.39
891.89	226.38
892.20	226.36
892.50	226.34
892.81	226.33
893.12	226.33
893.42	226.24
893.73	226.23
894.04	226.23
894.34	226.25
894.65	226.25
894.95	226.23
895.26	226.24
895.57	226.32
895.87	226.13
896.18	226.17
896.48	226.18
896.79	226.17
897.10	226.20
897.40	226.22
897.71	226.24
898.01	226.22
898.32	226.25
898.63	226.24
898.93	226.26
899.24	226.26
899.54	226.26
899.85	226.25
900.15	226.24
900.46	226.23
900.76	226.24
901.07	226.23
901.38	226.22
901.68	226.24
901.99	226.15
902.29	226.16
902.60	226.14
902.90	226.12
903.21	226.12
903.51	226.10
903.82	226.13
904.12	226.13
904.43	226.14
904.73	226.12
905.03	226.14
905.34	226.31
905.64	226.30
905.95	226.30
906.25	226.30
906.56	226.30
906.86	226.29
907.17	226.28
907.47	226.30
907.77	226.28
908.08	226.24
908.38	226.26
908.69	226.27
908.99	226.30
909.30	226.32
909.60	226.32
909.90	226.31
910.21	226.26
910.51	226.24
910.81	226.24
911.12	226.25
911.42	226.25
911.73	226.06
912.03	226.07
912.33	226.11
912.64	226.10
912.94	226.08
913.24	226.05
913.55	226.04
913.85	226.02
914.15	226.06
914.46	226.08
914.76	226.06
915.06	226.05
915.37	226.01
915.67	226.00
915.97	226.00
916.27	225.98
916.58	225.99
916.88	225.98
917.18	225.97
917.49	226.08
917.79	226.08
918.09	226.11
918.39	226.15
918.70	226.13
919.00	226.14
919.30	226.23
919.60	226.22
919.91	226.21
920.21	226.22
920.51	226.18
920.81	226.17
921.12	226.20
921.42	226.19
921.72	226.20
922.02	226.21
922.32	226.23
922.63	226.24
922.93	226.34
923.23	226.35
923.53	226.33
923.83	226.21
924.13	226.22
924.44	226.22
924.74	226.24
925.04	226.28
925.34	226.28
925.64	226.20
925.94	226.21
926.24	226.31
926.55	226.29
926.85	226.32
927.15	226.32
927.45	226.31
927.75	226.31
928.05	226.32
928.35	226.30
928.65	226.33
928.95	226.34
929.26	226.25
929.56	226.29
929.86	226.31
930.16	226.30
930.46	226.28
930.76	226.29
931.06	226.20
931.36	226.15
931.66	226.18
931.96	226.19
932.26	226.21
932.56	226.13
932.86	226.14
933.16	226.14
933.46	226.12
933.76	226.09
934.06	226.13
934.36	226.18
934.66	226.18
934.96	226.15
935.26	226.15
935.56	226.18
935.86	226.13
936.16	226.11
936.46	226.10
936.76	226.09
937.06	226.06
937.36	226.08
937.66	226.09
937.96	226.07
938.26	226.03
938.56	226.01
938.86	226.02
939.16	226.06
939.46	226.08
939.76	226.09
940.06	226.09
940.35	226.06
940.65	225.97
940.95	225.98
941.25	225.94
941.55	225.92
941.85	225.91
942.15	225.95
942.45	226.00
942.75	225.99
943.04	226.00
943.34	226.04
943.64	226.02
943.94	225.99
944.24	226.00
944.54	226.01
944.84	226.01
945.13	225.99
945.43	225.95
945.73	225.93
946.03	225.92
946.33	225.90
946.62	225.89
946.92	225.89
947.22	225.90
947.52	225.91
947.82	225.94
948.11	225.91
948.41	225.87
948.71	225.82
949.01	225.83
949.31	225.82
949.60	225.80
949.90	225.83
950.20	225.82
950.50	225.81
950.79	225.80
951.09	225.83
951.39	225.83
951.69	225.82
951.98	225.85
952.28	225.87
952.58	225.87
952.87	225.87
953.17	225.89
953.47	225.87
953.76	225.86
954.06	225.83
954.36	225.81
954.66	225.81
954.95	225.86
955.25	225.87
955.55	225.89
955.84	225.86
956.14	225.87
956.44	225.89
956.73	225.86
957.03	225.87
957.32	225.87
957.62	225.86
957.92	225.90
958.21	225.87
958.51	226.08
958.81	226.10
959.10	226.12
959.40	226.16
959.69	226.17
959.99	226.20
960.29	226.21
960.58	226.21
960.88	226.27
961.17	226.25
961.47	226.26
961.76	226.24
962.06	226.28
962.36	226.26
962.65	226.26
962.95	226.28
963.24	226.27
963.54	226.27
963.83	226.28
964.13	226.27
964.42	226.25
964.72	226.10
965.01	226.10
965.31	226.08
965.60	226.03
965.90	226.14
966.19	226.10
966.49	226.11
966.78	226.10
967.08	226.09
967.37	226.09
967.67	226.05
967.96	226.09
968.26	226.08
968.55	226.10
968.85	226.09
969.14	226.08
969.43	226.08
969.73	226.06
970.02	226.06
970.32	226.05
970.61	226.02
970.91	225.97
971.20	225.94
971.49	225.93
971.79	225.95
972.08	225.82
972.38	225.84
972.67	225.83
972.96	225.86
973.26	225.82
973.55	225.88
973.85	225.87
974.14	225.85
974.43	225.86
974.73	225.83
975.02	225.81
975.31	225.81
975.61	225.81
975.90	225.80
976.19	225.78
976.49	225.80
976.78	225.81
977.07	225.81
977.37	225.83
977.66	225.85
977.95	225.82
978.24	225.83
978.54	225.87
978.83	225.85
979.12	225.84
979.42	225.84
979.71	225.80
980.00	225.80
980.29	225.81
980.59	225.78
980.88	225.83
981.17	225.83
981.46	225.83
981.76	225.83
982.05	225.89
982.34	225.91
982.63	225.91
982.93	225.91
983.22	225.95
983.51	225.96
983.80	225.99
984.09	226.01
984.39	226.00
984.68	225.97
984.97	225.99
985.26	225.98
985.55	225.99
985.85	225.96
986.14	225.99
986.43	226.01
986.72	226.00
987.01	225.94
987.30	225.94
987.59	225.93
987.89	225.94
988.18	225.88
988.47	225.86
988.76	225.84
989.05	225.83
989.34	225.80
989.63	225.85
989.92	225.81
990.22	225.79
990.51	225.78
990.80	225.77
991.09	225.78
991.38	225.81
991.67	225.79
991.96	225.78
992.25	225.78
992.54	225.74
992.83	225.75
993.12	225.75
993.41	225.78
993.70	225.86
993.99	225.89
994.28	225.92
994.58	225.94
994.87	225.93
995.16	225.92
995.45	225.91
995.74	225.84
996.03	225.86
996.32	225.90
996.61	225.93
996.90	225.93
997.19	225.92
997.48	225.92
997.77	225.91
998.06	225.92
998.34	225.91
998.63	225.91
998.92	225.92
999.21	225.95
999.50	225.95
999.79	225.88
1000.08	225.87
1000.37	225.87
1000.66	225.84
1000.95	225.89
1001.24	225.90
1001.53	225.93
1001.82	225.93
1002.11	225.89
1002.40	225.90
1002.68	225.94
1002.97	226.07
1003.26	226.05
1003.55	226.02
1003.84	226.04
1004.13	226.09
1004.42	226.09
1004.71	226.09
1004.99	226.07
1005.28	226.11
1005.57	226.09
1005.86	226.07
1006.15	226.06
1006.44	226.04
1006.72	226.06
1007.01	226.02
1007.30	226.02
1007.59	226.00
1007.88	226.00
1008.17	226.02
1008.45	225.98
1008.74	225.90
1009.03	225.81
1009.32	225.82
1009.60	225.82
1009.89	225.80
1010.18	225.73
1010.47	225.72
1010.76	225.72
1011.04	225.72
1011.33	225.70
1011.62	225.72
1011.91	225.73
1012.19	225.74
1012.48	225.75
1012.77	225.75
1013.05	225.81
1013.34	225.81
1013.63	225.80
1013.92	225.82
1014.20	225.80
1014.49	225.82
1014.78	225.84
1015.06	225.78
1015.35	225.78
1015.64	225.80
1015.92	225.83
1016.21	225.85
1016.50	225.85
1016.78	225.87
1017.07	225.89
1017.36	225.86
1017.64	225.83
1017.93	225.85
1018.22	225.83
1018.50	225.83
1018.79	225.82
1019.08	225.75
1019.36	225.77
1019.65	225.75
1019.93	225.79
1020.22	225.82
1020.51	225.91
1020.79	225.89
1021.08	225.62
1021.36	225.54
1021.65	225.80
1021.94	225.71
1022.22	225.93
1022.51	225.49
1022.79	226.61
1023.08	226.05
1023.36	227.95
1023.65	225.41
>>>>>End Processed Spectral Data<<<<<
