SpectraSuite Data File
++++++++++++++++++++++++++++++++++++
Date: Tue Oct 06 17:31:42 EDT 2015
User: lab3
Dark Spectrum Present: No
Reference Spectrum Present: No
Number of Sampled Component Spectra: 1
Spectrometers: USB2E7196
Integration Time (usec): 66000 (USB2E7196)
Spectra Averaged: 1000 (USB2E7196)
Boxcar Smoothing: 10 (USB2E7196)
Correct for Electrical Dark: No (USB2E7196)
Strobe/Lamp Enabled: No (USB2E7196)
Correct for Detector Non-linearity: No (USB2E7196)
Correct for Stray Light: No (USB2E7196)
Number of Pixels in Processed Spectrum: 2048
>>>>>Begin Processed Spectral Data<<<<<
339.09	0.00
339.48	215.28
339.86	216.72
340.24	217.99
340.63	219.60
341.01	223.53
341.39	222.08
341.78	223.66
342.16	225.00
342.54	225.32
342.93	213.73
343.31	224.53
343.69	225.07
344.07	225.54
344.46	225.99
344.84	226.40
345.22	226.58
345.60	226.87
345.99	227.08
346.37	227.21
346.75	227.31
347.13	227.40
347.52	227.48
347.90	227.60
348.28	227.64
348.66	227.71
349.05	227.70
349.43	227.77
349.81	227.83
350.19	227.88
350.57	227.95
350.96	228.05
351.34	228.15
351.72	228.25
352.10	228.36
352.48	228.43
352.87	228.47
353.25	228.54
353.63	228.59
354.01	228.66
354.39	228.74
354.77	228.82
355.15	228.94
355.54	228.98
355.92	228.99
356.30	229.08
356.68	229.27
357.06	229.34
357.44	229.39
357.82	229.45
358.20	229.67
358.58	229.74
358.97	229.80
359.35	229.90
359.73	229.99
360.11	230.04
360.49	230.10
360.87	230.16
361.25	230.23
361.63	230.33
362.01	230.39
362.39	230.43
362.77	230.48
363.15	230.50
363.53	230.53
363.91	230.57
364.29	230.59
364.67	230.45
365.05	230.48
365.43	230.53
365.81	230.57
366.19	230.52
366.57	230.60
366.95	230.59
367.33	230.55
367.71	230.54
368.09	230.57
368.47	230.58
368.85	230.56
369.23	230.59
369.61	230.51
369.99	230.54
370.37	230.55
370.75	230.67
371.13	230.63
371.51	230.60
371.89	230.59
372.27	230.57
372.65	230.56
373.03	230.53
373.41	230.48
373.78	230.42
374.16	230.30
374.54	230.20
374.92	230.15
375.30	230.11
375.68	230.03
376.06	229.98
376.44	229.93
376.82	229.90
377.19	229.85
377.57	229.81
377.95	229.70
378.33	229.63
378.71	229.43
379.09	229.40
379.47	229.36
379.84	229.30
380.22	229.24
380.60	229.16
380.98	229.11
381.36	229.05
381.73	228.99
382.11	228.98
382.49	228.95
382.87	228.89
383.25	228.85
383.62	229.04
384.00	228.97
384.38	228.93
384.76	228.93
385.13	228.93
385.51	228.90
385.89	228.85
386.27	228.83
386.64	228.81
387.02	228.76
387.40	228.73
387.78	228.71
388.15	228.69
388.53	228.66
388.91	228.63
389.29	228.60
389.66	228.61
390.04	228.57
390.42	228.57
390.79	228.57
391.17	228.56
391.55	228.34
391.92	228.33
392.30	228.35
392.68	228.31
393.05	228.29
393.43	228.31
393.81	228.33
394.18	228.31
394.56	228.32
394.94	228.38
395.31	228.37
395.69	228.43
396.06	228.48
396.44	228.54
396.82	228.57
397.19	228.70
397.57	228.72
397.95	228.78
398.32	228.78
398.70	228.85
399.07	228.94
399.45	229.00
399.82	229.06
400.20	229.10
400.58	229.19
400.95	229.21
401.33	229.33
401.70	229.56
402.08	229.70
402.45	229.84
402.83	230.01
403.20	230.18
403.58	230.32
403.95	230.53
404.33	230.74
404.71	230.95
405.08	231.26
405.46	231.50
405.83	231.79
406.21	232.09
406.58	232.42
406.96	232.74
407.33	233.11
407.70	233.54
408.08	234.12
408.45	234.63
408.83	235.16
409.20	235.67
409.58	236.13
409.95	236.75
410.33	237.43
410.70	238.06
411.08	238.82
411.45	239.62
411.82	240.43
412.20	241.36
412.57	242.47
412.95	243.34
413.32	244.48
413.69	245.65
414.07	246.89
414.44	248.26
414.82	249.66
415.19	251.31
415.56	252.98
415.94	254.73
416.31	256.66
416.68	258.62
417.06	260.88
417.43	262.98
417.81	265.41
418.18	267.89
418.55	270.61
418.93	273.44
419.30	276.40
419.67	279.53
420.04	282.76
420.42	286.13
420.79	290.03
421.16	293.96
421.54	297.92
421.91	302.09
422.28	306.41
422.66	311.08
423.03	315.51
423.40	320.16
423.77	325.14
424.15	330.24
424.52	335.52
424.89	341.25
425.26	346.94
425.64	352.21
426.01	358.14
426.38	364.17
426.75	370.41
427.13	376.78
427.50	383.45
427.87	390.38
428.24	397.36
428.61	404.04
428.99	411.23
429.36	419.17
429.73	426.74
430.10	434.29
430.47	442.00
430.85	449.98
431.22	458.49
431.59	467.21
431.96	475.71
432.33	485.18
432.70	494.21
433.08	504.87
433.45	514.93
433.82	524.86
434.19	536.00
434.56	546.95
434.93	557.59
435.30	568.14
435.68	580.13
436.05	591.85
436.42	603.57
436.79	614.31
437.16	625.97
437.53	638.41
437.90	650.83
438.27	663.05
438.64	676.24
439.01	688.20
439.38	699.21
439.75	709.87
440.13	721.97
440.50	733.45
440.87	742.66
441.24	752.78
441.61	763.87
441.98	772.06
442.35	781.79
442.72	791.67
443.09	801.09
443.46	807.18
443.83	811.83
444.20	815.66
444.57	821.25
444.94	824.51
445.31	827.90
445.68	830.83
446.05	833.00
446.42	832.64
446.79	832.05
447.16	831.57
447.53	831.13
447.90	827.53
448.27	824.11
448.64	818.70
449.01	814.96
449.37	807.23
449.74	800.23
450.11	791.18
450.48	781.25
450.85	771.29
451.22	762.73
451.59	754.28
451.96	746.64
452.33	735.57
452.70	725.76
453.07	713.88
453.43	702.03
453.80	690.48
454.17	679.40
454.54	669.17
454.91	657.62
455.28	646.72
455.65	636.45
456.02	625.58
456.38	616.83
456.75	605.67
457.12	596.64
457.49	587.55
457.86	578.94
458.23	571.33
458.59	562.98
458.96	554.41
459.33	546.90
459.70	539.26
460.07	533.41
460.43	526.54
460.80	520.10
461.17	514.48
461.54	508.44
461.91	502.78
462.27	497.02
462.64	492.31
463.01	486.95
463.38	481.52
463.74	476.62
464.11	472.26
464.48	468.32
464.85	464.08
465.21	460.82
465.58	457.21
465.95	453.15
466.32	449.89
466.68	446.71
467.05	443.49
467.42	440.36
467.78	437.04
468.15	433.95
468.52	431.68
468.88	428.70
469.25	425.97
469.62	423.80
469.98	421.46
470.35	419.35
470.72	417.44
471.08	415.54
471.45	413.94
471.82	412.14
472.18	410.25
472.55	409.05
472.92	407.53
473.28	406.35
473.65	405.07
474.02	403.85
474.38	402.81
474.75	402.22
475.11	401.40
475.48	401.01
475.85	400.59
476.21	400.35
476.58	400.20
476.94	400.37
477.31	400.44
477.67	400.53
478.04	400.87
478.41	401.31
478.77	401.89
479.14	402.29
479.50	403.08
479.87	404.09
480.23	405.07
480.60	406.04
480.96	407.00
481.33	408.46
481.69	409.89
482.06	411.29
482.42	412.58
482.79	414.18
483.15	416.06
483.52	418.18
483.88	420.19
484.25	422.34
484.61	424.60
484.98	427.03
485.34	429.76
485.71	432.60
486.07	435.64
486.44	438.67
486.80	442.05
487.17	445.53
487.53	449.29
487.90	453.24
488.26	457.52
488.62	462.04
488.99	466.55
489.35	471.29
489.72	476.39
490.08	481.76
490.44	487.23
490.81	492.92
491.17	498.79
491.54	505.09
491.90	511.52
492.26	518.38
492.63	525.58
492.99	533.10
493.36	540.75
493.72	548.80
494.08	557.04
494.45	565.68
494.81	574.71
495.17	584.01
495.54	593.81
495.90	604.04
496.26	614.42
496.63	625.11
496.99	636.19
497.35	647.78
497.72	659.64
498.08	671.85
498.44	684.38
498.80	697.60
499.17	711.09
499.53	724.99
499.89	739.34
500.26	753.85
500.62	768.72
500.98	784.48
501.34	800.24
501.71	816.81
502.07	833.63
502.43	850.93
502.79	868.38
503.16	886.35
503.52	904.47
503.88	923.04
504.24	942.01
504.60	961.25
504.97	981.03
505.33	1001.31
505.69	1022.56
506.05	1044.04
506.41	1065.40
506.78	1086.88
507.14	1108.98
507.50	1131.50
507.86	1154.42
508.22	1177.51
508.59	1200.42
508.95	1224.38
509.31	1248.74
509.67	1273.74
510.03	1298.64
510.39	1323.45
510.75	1348.32
511.12	1373.55
511.48	1398.90
511.84	1424.24
512.20	1449.85
512.56	1476.52
512.92	1502.95
513.28	1528.76
513.64	1554.94
514.00	1581.41
514.37	1608.16
514.73	1634.88
515.09	1660.91
515.45	1687.21
515.81	1713.67
516.17	1739.85
516.53	1765.37
516.89	1790.72
517.25	1816.28
517.61	1841.57
517.97	1867.48
518.33	1892.75
518.69	1917.87
519.05	1943.42
519.41	1969.07
519.77	1994.68
520.13	2018.76
520.49	2042.94
520.85	2067.46
521.21	2091.36
521.57	2115.50
521.93	2138.67
522.29	2162.34
522.65	2185.84
523.01	2209.04
523.37	2231.55
523.73	2254.66
524.09	2277.48
524.45	2299.91
524.81	2321.67
525.17	2343.34
525.53	2364.20
525.89	2385.42
526.25	2406.22
526.61	2425.43
526.97	2444.62
527.33	2463.61
527.68	2482.33
528.04	2500.68
528.40	2517.66
528.76	2534.88
529.12	2551.69
529.48	2568.96
529.84	2583.59
530.20	2598.60
530.56	2612.76
530.91	2627.02
531.27	2640.78
531.63	2653.50
531.99	2666.07
532.35	2678.32
532.71	2690.04
533.07	2702.15
533.42	2712.35
533.78	2722.81
534.14	2734.16
534.50	2744.37
534.86	2755.07
535.21	2763.75
535.57	2772.17
535.93	2780.47
536.29	2787.03
536.65	2793.39
537.00	2798.40
537.36	2804.70
537.72	2810.05
538.08	2814.78
538.44	2818.50
538.79	2821.95
539.15	2824.17
539.51	2825.59
539.87	2825.85
540.22	2824.64
540.58	2823.60
540.94	2823.51
541.29	2822.18
541.65	2819.56
542.01	2816.56
542.37	2812.04
542.72	2808.96
543.08	2804.36
543.44	2799.98
543.79	2795.20
544.15	2789.74
544.51	2784.34
544.87	2777.96
545.22	2770.72
545.58	2763.47
545.94	2756.34
546.29	2747.77
546.65	2739.48
547.01	2731.32
547.36	2723.55
547.72	2715.95
548.07	2706.71
548.43	2696.31
548.79	2685.80
549.14	2675.59
549.50	2665.58
549.86	2654.62
550.21	2642.21
550.57	2630.89
550.92	2617.89
551.28	2605.28
551.64	2592.91
551.99	2580.35
552.35	2567.47
552.70	2554.42
553.06	2541.80
553.41	2528.78
553.77	2515.52
554.13	2502.31
554.48	2488.11
554.84	2473.17
555.19	2458.72
555.55	2444.25
555.90	2430.21
556.26	2416.43
556.61	2401.60
556.97	2385.77
557.32	2370.54
557.68	2355.61
558.03	2340.34
558.39	2325.99
558.74	2312.33
559.10	2296.87
559.45	2281.68
559.81	2267.08
560.16	2252.16
560.52	2237.04
560.87	2222.12
561.23	2206.91
561.58	2192.23
561.94	2177.14
562.29	2161.65
562.64	2146.29
563.00	2131.10
563.35	2116.00
563.71	2100.57
564.06	2085.32
564.42	2070.67
564.77	2055.98
565.12	2041.03
565.48	2025.94
565.83	2011.11
566.19	1996.19
566.54	1981.60
566.89	1966.44
567.25	1951.23
567.60	1936.86
567.96	1921.81
568.31	1905.65
568.66	1890.38
569.02	1875.61
569.37	1861.37
569.72	1847.66
570.08	1833.54
570.43	1818.85
570.78	1804.13
571.14	1789.18
571.49	1774.36
571.84	1759.77
572.20	1744.14
572.55	1729.25
572.90	1714.43
573.26	1699.63
573.61	1684.22
573.96	1669.32
574.31	1654.32
574.67	1639.17
575.02	1623.75
575.37	1608.38
575.72	1593.71
576.08	1578.84
576.43	1563.39
576.78	1548.04
577.13	1533.02
577.49	1518.23
577.84	1503.88
578.19	1489.03
578.54	1474.32
578.90	1459.52
579.25	1444.57
579.60	1430.75
579.95	1416.68
580.30	1402.59
580.66	1388.24
581.01	1374.02
581.36	1359.92
581.71	1346.51
582.06	1333.14
582.42	1319.59
582.77	1306.54
583.12	1293.72
583.47	1280.79
583.82	1268.04
584.17	1254.93
584.53	1241.88
584.88	1229.11
585.23	1216.18
585.58	1203.65
585.93	1191.07
586.28	1179.36
586.63	1167.53
586.98	1155.37
587.34	1143.55
587.69	1131.57
588.04	1119.95
588.39	1108.59
588.74	1096.82
589.09	1085.24
589.44	1073.41
589.79	1062.12
590.14	1050.88
590.49	1039.65
590.84	1028.72
591.19	1018.05
591.54	1007.52
591.89	996.56
592.25	985.95
592.60	975.30
592.95	964.77
593.30	954.54
593.65	944.12
594.00	933.94
594.35	924.60
594.70	914.63
595.05	905.23
595.40	895.60
595.75	885.84
596.10	876.71
596.45	867.55
596.80	858.73
597.15	849.92
597.50	841.13
597.85	832.57
598.19	823.99
598.54	815.40
598.89	807.31
599.24	799.58
599.59	791.65
599.94	784.29
600.29	776.98
600.64	769.55
600.99	761.96
601.34	754.66
601.69	746.86
602.04	739.90
602.39	732.84
602.74	725.98
603.08	719.28
603.43	712.55
603.78	705.79
604.13	699.10
604.48	692.47
604.83	686.04
605.18	679.67
605.53	673.48
605.87	667.24
606.22	661.08
606.57	654.88
606.92	648.62
607.27	642.38
607.62	636.32
607.96	630.50
608.31	625.12
608.66	619.64
609.01	614.42
609.36	609.16
609.70	603.87
610.05	598.59
610.40	593.48
610.75	588.34
611.10	583.43
611.44	578.52
611.79	573.69
612.14	568.79
612.49	563.98
612.83	559.41
613.18	554.89
613.53	550.38
613.88	546.03
614.22	541.97
614.57	537.85
614.92	533.80
615.27	529.88
615.61	525.85
615.96	521.84
616.31	517.84
616.65	513.99
617.00	510.25
617.35	506.56
617.70	502.88
618.04	499.32
618.39	495.85
618.74	492.59
619.08	489.31
619.43	486.14
619.78	482.91
620.12	479.69
620.47	476.66
620.82	473.69
621.16	470.71
621.51	467.79
621.85	464.88
622.20	462.05
622.55	459.16
622.89	456.36
623.24	453.74
623.59	451.16
623.93	448.63
624.28	446.24
624.62	444.04
624.97	441.86
625.32	439.55
625.66	437.22
626.01	434.86
626.35	432.66
626.70	430.36
627.04	428.29
627.39	426.17
627.73	424.12
628.08	422.13
628.43	420.16
628.77	418.11
629.12	416.18
629.46	414.34
629.81	412.62
630.15	410.81
630.50	408.99
630.84	407.24
631.19	405.51
631.53	403.87
631.88	402.06
632.22	400.36
632.57	398.92
632.91	397.43
633.26	396.02
633.60	394.60
633.95	393.30
634.29	391.83
634.64	390.42
634.98	388.90
635.32	387.54
635.67	386.31
636.01	385.09
636.36	383.90
636.70	382.80
637.05	381.53
637.39	380.41
637.73	379.30
638.08	378.24
638.42	377.22
638.77	376.07
639.11	374.87
639.45	373.70
639.80	372.47
640.14	371.33
640.49	370.20
640.83	369.06
641.17	367.95
641.52	366.89
641.86	365.87
642.20	364.99
642.55	363.93
642.89	362.86
643.23	361.88
643.58	361.00
643.92	359.95
644.26	359.02
644.61	358.11
644.95	357.16
645.29	356.14
645.64	355.09
645.98	354.17
646.32	353.35
646.66	352.49
647.01	351.65
647.35	350.88
647.69	350.09
648.04	349.36
648.38	348.57
648.72	347.82
649.06	347.03
649.41	346.20
649.75	345.45
650.09	344.74
650.43	343.98
650.78	343.18
651.12	342.44
651.46	341.70
651.80	340.99
652.14	340.33
652.49	339.72
652.83	339.04
653.17	338.33
653.51	337.66
653.85	337.07
654.20	336.44
654.54	335.70
654.88	335.01
655.22	334.38
655.56	333.72
655.90	333.07
656.25	332.45
656.59	331.84
656.93	331.26
657.27	330.72
657.61	330.11
657.95	329.56
658.29	329.00
658.64	328.46
658.98	327.84
659.32	327.23
659.66	326.67
660.00	326.15
660.34	325.62
660.68	325.04
661.02	324.41
661.36	323.82
661.70	323.29
662.05	322.76
662.39	322.21
662.73	321.75
663.07	321.34
663.41	320.88
663.75	320.38
664.09	319.88
664.43	319.27
664.77	318.77
665.11	318.20
665.45	317.68
665.79	317.18
666.13	316.65
666.47	316.12
666.81	315.54
667.15	314.96
667.49	314.51
667.83	314.08
668.17	313.64
668.51	313.22
668.85	312.82
669.19	312.46
669.53	311.94
669.87	311.40
670.21	310.86
670.55	310.34
670.89	309.95
671.23	309.50
671.57	309.12
671.91	308.76
672.25	308.41
672.58	308.09
672.92	307.64
673.26	307.30
673.60	306.95
673.94	306.60
674.28	306.26
674.62	305.88
674.96	305.44
675.30	305.05
675.64	304.59
675.97	304.13
676.31	303.66
676.65	303.23
676.99	302.91
677.33	302.47
677.67	302.09
678.01	301.60
678.34	301.17
678.68	300.78
679.02	300.34
679.36	299.90
679.70	299.44
680.04	299.05
680.37	298.64
680.71	298.25
681.05	297.89
681.39	297.48
681.73	297.03
682.06	296.60
682.40	296.21
682.74	295.86
683.08	295.57
683.42	295.19
683.75	294.85
684.09	294.38
684.43	294.00
684.77	293.58
685.10	293.20
685.44	292.82
685.78	292.41
686.12	292.00
686.45	291.59
686.79	291.15
687.13	290.77
687.46	290.33
687.80	289.91
688.14	289.43
688.48	289.01
688.81	288.60
689.15	288.26
689.49	287.84
689.82	287.41
690.16	286.88
690.50	286.44
690.83	286.01
691.17	285.56
691.51	285.15
691.84	284.77
692.18	284.34
692.52	283.89
692.85	283.47
693.19	283.11
693.52	282.70
693.86	282.28
694.20	281.84
694.53	281.45
694.87	281.00
695.21	280.58
695.54	280.16
695.88	279.72
696.21	279.24
696.55	278.81
696.88	278.39
697.22	277.97
697.56	277.59
697.89	277.13
698.23	276.74
698.56	276.31
698.90	275.91
699.23	275.49
699.57	275.12
699.90	274.71
700.24	274.26
700.58	273.88
700.91	273.54
701.25	273.32
701.58	273.00
701.92	272.67
702.25	272.32
702.59	271.93
702.92	271.57
703.26	271.19
703.59	270.82
703.93	270.58
704.26	270.23
704.60	269.85
704.93	269.47
705.26	269.10
705.60	268.78
705.93	268.37
706.27	268.07
706.60	267.74
706.94	267.44
707.27	267.04
707.61	266.68
707.94	266.27
708.27	265.75
708.61	265.31
708.94	264.92
709.28	264.55
709.61	264.18
709.94	263.85
710.28	263.52
710.61	263.21
710.95	262.72
711.28	262.51
711.61	262.16
711.95	261.88
712.28	261.54
712.61	261.19
712.95	260.97
713.28	260.71
713.61	260.36
713.95	259.98
714.28	259.70
714.61	259.38
714.95	259.08
715.28	258.76
715.61	258.48
715.95	258.22
716.28	257.91
716.61	257.66
716.95	257.36
717.28	257.08
717.61	256.79
717.94	256.53
718.28	256.14
718.61	255.86
718.94	255.57
719.27	255.31
719.61	255.07
719.94	254.76
720.27	254.41
720.60	254.16
720.94	253.90
721.27	253.66
721.60	253.44
721.93	253.19
722.27	253.00
722.60	252.75
722.93	252.48
723.26	252.26
723.59	251.99
723.93	251.78
724.26	251.58
724.59	251.35
724.92	251.12
725.25	250.94
725.59	250.73
725.92	250.54
726.25	250.31
726.58	250.09
726.91	249.86
727.24	249.67
727.57	249.45
727.91	249.22
728.24	249.03
728.57	248.80
728.90	248.63
729.23	248.37
729.56	248.26
729.89	248.05
730.22	247.84
730.55	247.65
730.89	247.44
731.22	247.23
731.55	247.02
731.88	246.84
732.21	246.63
732.54	246.42
732.87	246.24
733.20	246.06
733.53	245.89
733.86	245.73
734.19	245.52
734.52	245.39
734.85	245.34
735.18	245.14
735.51	245.04
735.84	244.88
736.17	244.79
736.50	244.52
736.83	244.58
737.16	244.43
737.49	244.28
737.82	244.10
738.15	243.97
738.48	243.82
738.81	243.66
739.14	243.48
739.47	243.33
739.80	243.17
740.13	243.04
740.46	242.85
740.79	242.66
741.12	242.50
741.45	242.32
741.78	242.07
742.11	241.96
742.44	241.75
742.77	241.62
743.10	241.43
743.43	241.29
743.75	240.95
744.08	241.07
744.41	240.92
744.74	240.78
745.07	240.60
745.40	240.51
745.73	240.44
746.06	240.32
746.39	240.21
746.71	240.06
747.04	239.91
747.37	239.78
747.70	239.69
748.03	239.58
748.36	239.50
748.68	239.38
749.01	239.20
749.34	239.09
749.67	238.98
750.00	238.88
750.33	238.90
750.65	238.81
750.98	238.43
751.31	238.33
751.64	238.22
751.97	238.20
752.29	238.05
752.62	237.87
752.95	237.75
753.28	237.62
753.60	237.50
753.93	237.45
754.26	237.36
754.59	237.22
754.91	237.11
755.24	236.96
755.57	236.86
755.90	236.76
756.22	236.63
756.55	236.50
756.88	236.35
757.20	236.14
757.53	235.98
757.86	235.87
758.19	235.78
758.51	235.69
758.84	235.52
759.17	235.42
759.49	235.33
759.82	235.32
760.15	235.25
760.47	235.16
760.80	235.03
761.13	234.96
761.45	234.87
761.78	234.79
762.11	234.72
762.43	234.61
762.76	234.53
763.08	234.47
763.41	234.41
763.74	234.36
764.06	234.27
764.39	234.21
764.71	234.14
765.04	234.05
765.37	233.96
765.69	233.90
766.02	233.82
766.34	233.75
766.67	233.61
767.00	233.57
767.32	233.60
767.65	233.63
767.97	233.55
768.30	233.50
768.62	233.43
768.95	233.36
769.27	233.30
769.60	233.26
769.92	233.18
770.25	233.09
770.57	232.99
770.90	232.94
771.22	232.88
771.55	232.83
771.87	232.79
772.20	232.73
772.52	232.82
772.85	232.98
773.17	232.94
773.50	232.86
773.82	232.78
774.15	232.64
774.47	232.49
774.80	232.42
775.12	232.37
775.45	232.32
775.77	232.27
776.09	232.25
776.42	232.20
776.74	232.20
777.07	232.15
777.39	232.12
777.72	232.06
778.04	232.06
778.36	232.00
778.69	231.96
779.01	231.94
779.33	231.75
779.66	231.50
779.98	231.45
780.31	231.44
780.63	231.48
780.95	231.47
781.28	231.43
781.60	231.38
781.92	231.34
782.25	231.30
782.57	231.27
782.89	231.22
783.22	231.18
783.54	231.11
783.86	231.10
784.19	231.05
784.51	231.08
784.83	231.00
785.16	230.95
785.48	230.92
785.80	230.88
786.12	230.87
786.45	230.83
786.77	230.83
787.09	230.78
787.42	230.69
787.74	230.67
788.06	230.67
788.38	230.64
788.71	230.59
789.03	230.58
789.35	230.56
789.67	230.52
789.99	230.49
790.32	230.45
790.64	230.44
790.96	230.59
791.28	230.48
791.61	230.47
791.93	230.46
792.25	230.42
792.57	230.53
792.89	230.46
793.21	230.45
793.54	230.40
793.86	230.37
794.18	230.36
794.50	230.30
794.82	230.26
795.14	230.27
795.47	230.28
795.79	230.26
796.11	230.20
796.43	230.19
796.75	230.17
797.07	230.17
797.39	230.13
797.71	229.96
798.04	229.95
798.36	229.95
798.68	229.92
799.00	229.92
799.32	229.80
799.64	229.82
799.96	229.81
800.28	229.83
800.60	229.80
800.92	229.78
801.24	229.76
801.56	229.75
801.89	229.71
802.21	229.69
802.53	229.65
802.85	229.68
803.17	229.74
803.49	229.69
803.81	229.65
804.13	229.63
804.45	229.59
804.77	229.59
805.09	229.58
805.41	229.55
805.73	229.49
806.05	229.43
806.37	229.40
806.69	229.36
807.01	229.33
807.33	229.33
807.65	229.25
807.97	229.31
808.28	229.27
808.60	229.26
808.92	229.22
809.24	229.30
809.56	229.25
809.88	229.18
810.20	229.17
810.52	229.20
810.84	229.16
811.16	229.13
811.48	229.11
811.80	229.16
812.12	229.15
812.43	229.17
812.75	229.17
813.07	229.15
813.39	229.14
813.71	229.08
814.03	229.05
814.35	229.05
814.67	228.96
814.98	228.94
815.30	228.91
815.62	228.89
815.94	228.76
816.26	228.76
816.58	228.72
816.89	228.71
817.21	228.65
817.53	228.65
817.85	228.66
818.17	228.64
818.48	228.55
818.80	228.59
819.12	228.55
819.44	228.52
819.76	228.49
820.07	228.47
820.39	228.47
820.71	228.48
821.03	228.47
821.34	228.46
821.66	228.48
821.98	228.50
822.30	228.48
822.61	228.58
822.93	228.54
823.25	228.53
823.57	228.50
823.88	228.52
824.20	228.50
824.52	228.50
824.83	228.47
825.15	228.43
825.47	228.40
825.79	228.41
826.10	228.39
826.42	228.37
826.74	228.38
827.05	228.38
827.37	228.37
827.69	228.35
828.00	228.35
828.32	228.33
828.64	228.30
828.95	228.39
829.27	228.32
829.58	228.32
829.90	228.34
830.22	228.36
830.53	228.32
830.85	228.31
831.17	228.27
831.48	228.27
831.80	228.28
832.11	228.28
832.43	228.25
832.75	228.24
833.06	228.34
833.38	228.28
833.69	228.27
834.01	228.28
834.32	228.27
834.64	228.24
834.96	228.25
835.27	228.24
835.59	228.17
835.90	228.14
836.22	228.14
836.53	228.09
836.85	228.07
837.16	228.24
837.48	228.23
837.79	228.29
838.11	228.30
838.42	228.30
838.74	228.30
839.05	228.28
839.37	228.27
839.68	228.16
840.00	228.16
840.31	228.18
840.63	228.15
840.94	228.13
841.26	228.12
841.57	228.11
841.88	228.12
842.20	228.10
842.51	228.07
842.83	228.05
843.14	228.23
843.46	228.22
843.77	228.12
844.08	228.12
844.40	228.05
844.71	228.02
845.03	228.00
845.34	227.98
845.65	227.99
845.97	227.98
846.28	228.00
846.60	228.00
846.91	227.96
847.22	227.96
847.54	228.00
847.85	228.02
848.16	228.00
848.48	227.96
848.79	228.03
849.10	228.04
849.42	228.06
849.73	227.88
850.04	227.88
850.36	227.81
850.67	227.83
850.98	227.85
851.30	227.87
851.61	227.87
851.92	227.87
852.23	227.92
852.55	227.93
852.86	227.93
853.17	227.93
853.49	227.96
853.80	227.98
854.11	227.98
854.42	228.00
854.74	227.97
855.05	227.99
855.36	227.88
855.67	227.88
855.99	227.88
856.30	228.09
856.61	228.09
856.92	228.08
857.23	228.09
857.55	228.06
857.86	228.03
858.17	228.05
858.48	228.01
858.79	227.97
859.11	227.99
859.42	227.97
859.73	227.95
860.04	227.94
860.35	227.89
860.66	227.82
860.98	227.81
861.29	227.84
861.60	227.82
861.91	227.87
862.22	227.84
862.53	227.81
862.84	227.60
863.16	227.63
863.47	227.60
863.78	227.57
864.09	227.57
864.40	227.59
864.71	227.58
865.02	227.61
865.33	227.58
865.64	227.54
865.95	227.54
866.27	227.65
866.58	227.63
866.89	227.66
867.20	227.67
867.51	227.64
867.82	227.64
868.13	227.68
868.44	227.64
868.75	227.68
869.06	227.68
869.37	227.70
869.68	227.65
869.99	227.69
870.30	227.71
870.61	227.73
870.92	227.70
871.23	227.68
871.54	227.70
871.85	227.74
872.16	227.75
872.47	227.73
872.78	227.63
873.09	227.65
873.40	227.63
873.71	227.64
874.02	227.65
874.33	227.62
874.64	227.58
874.95	227.62
875.26	227.58
875.56	227.57
875.87	227.56
876.18	227.56
876.49	227.72
876.80	227.69
877.11	227.66
877.42	227.67
877.73	227.68
878.04	227.65
878.35	227.65
878.66	227.66
878.96	227.66
879.27	227.66
879.58	227.65
879.89	227.64
880.20	227.69
880.51	227.68
880.82	227.69
881.12	227.69
881.43	227.67
881.74	227.64
882.05	227.64
882.36	227.65
882.67	227.67
882.97	227.48
883.28	227.48
883.59	227.48
883.90	227.50
884.21	227.51
884.51	227.50
884.82	227.48
885.13	227.46
885.44	227.46
885.74	227.47
886.05	227.45
886.36	227.46
886.67	227.38
886.98	227.48
887.28	227.48
887.59	227.48
887.90	227.48
888.20	227.48
888.51	227.52
888.82	227.49
889.13	227.50
889.43	227.66
889.74	227.64
890.05	227.64
890.35	227.62
890.66	227.59
890.97	227.58
891.28	227.57
891.58	227.58
891.89	227.57
892.20	227.54
892.50	227.53
892.81	227.52
893.12	227.53
893.42	227.44
893.73	227.44
894.04	227.43
894.34	227.43
894.65	227.43
894.95	227.41
895.26	227.41
895.57	227.48
895.87	227.29
896.18	227.32
896.48	227.34
896.79	227.33
897.10	227.36
897.40	227.36
897.71	227.39
898.01	227.37
898.32	227.39
898.63	227.40
898.93	227.41
899.24	227.42
899.54	227.39
899.85	227.39
900.15	227.37
900.46	227.38
900.76	227.39
901.07	227.39
901.38	227.37
901.68	227.38
901.99	227.29
902.29	227.32
902.60	227.29
902.90	227.25
903.21	227.25
903.51	227.23
903.82	227.26
904.12	227.25
904.43	227.26
904.73	227.25
905.03	227.25
905.34	227.42
905.64	227.39
905.95	227.40
906.25	227.39
906.56	227.39
906.86	227.38
907.17	227.37
907.47	227.38
907.77	227.36
908.08	227.32
908.38	227.34
908.69	227.34
908.99	227.38
909.30	227.40
909.60	227.38
909.90	227.38
910.21	227.33
910.51	227.31
910.81	227.31
911.12	227.32
911.42	227.32
911.73	227.14
912.03	227.16
912.33	227.21
912.64	227.19
912.94	227.17
913.24	227.15
913.55	227.13
913.85	227.13
914.15	227.16
914.46	227.18
914.76	227.16
915.06	227.14
915.37	227.10
915.67	227.09
915.97	227.11
916.27	227.08
916.58	227.08
916.88	227.08
917.18	227.06
917.49	227.18
917.79	227.17
918.09	227.19
918.39	227.23
918.70	227.22
919.00	227.23
919.30	227.32
919.60	227.31
919.91	227.30
920.21	227.31
920.51	227.28
920.81	227.27
921.12	227.31
921.42	227.31
921.72	227.32
922.02	227.33
922.32	227.35
922.63	227.35
922.93	227.45
923.23	227.47
923.53	227.46
923.83	227.35
924.13	227.36
924.44	227.35
924.74	227.37
925.04	227.41
925.34	227.41
925.64	227.33
925.94	227.34
926.24	227.44
926.55	227.42
926.85	227.44
927.15	227.44
927.45	227.42
927.75	227.43
928.05	227.43
928.35	227.42
928.65	227.45
928.95	227.46
929.26	227.38
929.56	227.41
929.86	227.43
930.16	227.41
930.46	227.40
930.76	227.41
931.06	227.32
931.36	227.28
931.66	227.31
931.96	227.34
932.26	227.34
932.56	227.27
932.86	227.28
933.16	227.28
933.46	227.26
933.76	227.24
934.06	227.26
934.36	227.33
934.66	227.32
934.96	227.29
935.26	227.30
935.56	227.32
935.86	227.27
936.16	227.25
936.46	227.24
936.76	227.23
937.06	227.21
937.36	227.23
937.66	227.23
937.96	227.21
938.26	227.17
938.56	227.17
938.86	227.17
939.16	227.22
939.46	227.24
939.76	227.25
940.06	227.24
940.35	227.23
940.65	227.14
940.95	227.16
941.25	227.12
941.55	227.09
941.85	227.08
942.15	227.12
942.45	227.17
942.75	227.16
943.04	227.18
943.34	227.21
943.64	227.18
943.94	227.17
944.24	227.18
944.54	227.19
944.84	227.19
945.13	227.17
945.43	227.12
945.73	227.11
946.03	227.10
946.33	227.08
946.62	227.06
946.92	227.05
947.22	227.05
947.52	227.07
947.82	227.09
948.11	227.08
948.41	227.04
948.71	226.99
949.01	227.01
949.31	226.99
949.60	226.97
949.90	227.00
950.20	226.99
950.50	226.98
950.79	226.97
951.09	227.00
951.39	226.99
951.69	226.97
951.98	227.00
952.28	227.01
952.58	227.02
952.87	227.03
953.17	227.06
953.47	227.05
953.76	227.05
954.06	227.02
954.36	226.99
954.66	227.00
954.95	227.06
955.25	227.06
955.55	227.08
955.84	227.06
956.14	227.08
956.44	227.09
956.73	227.07
957.03	227.08
957.32	227.08
957.62	227.07
957.92	227.11
958.21	227.10
958.51	227.30
958.81	227.32
959.10	227.34
959.40	227.38
959.69	227.40
959.99	227.42
960.29	227.43
960.58	227.43
960.88	227.47
961.17	227.44
961.47	227.47
961.76	227.44
962.06	227.48
962.36	227.44
962.65	227.45
962.95	227.46
963.24	227.45
963.54	227.44
963.83	227.46
964.13	227.45
964.42	227.43
964.72	227.27
965.01	227.28
965.31	227.27
965.60	227.20
965.90	227.31
966.19	227.26
966.49	227.27
966.78	227.27
967.08	227.26
967.37	227.26
967.67	227.22
967.96	227.25
968.26	227.24
968.55	227.27
968.85	227.27
969.14	227.26
969.43	227.25
969.73	227.24
970.02	227.22
970.32	227.21
970.61	227.19
970.91	227.14
971.20	227.11
971.49	227.10
971.79	227.13
972.08	227.01
972.38	227.03
972.67	227.01
972.96	227.04
973.26	227.00
973.55	227.06
973.85	227.05
974.14	227.02
974.43	227.05
974.73	227.02
975.02	227.00
975.31	227.00
975.61	227.00
975.90	226.98
976.19	226.97
976.49	226.99
976.78	227.00
977.07	227.00
977.37	227.02
977.66	227.04
977.95	227.02
978.24	227.03
978.54	227.06
978.83	227.05
979.12	227.04
979.42	227.05
979.71	227.01
980.00	227.01
980.29	227.03
980.59	226.98
980.88	227.01
981.17	227.01
981.46	227.01
981.76	227.01
982.05	227.07
982.34	227.08
982.63	227.07
982.93	227.08
983.22	227.12
983.51	227.12
983.80	227.15
984.09	227.17
984.39	227.16
984.68	227.13
984.97	227.14
985.26	227.13
985.55	227.15
985.85	227.11
986.14	227.14
986.43	227.15
986.72	227.15
987.01	227.12
987.30	227.12
987.59	227.11
987.89	227.12
988.18	227.06
988.47	227.04
988.76	227.03
989.05	227.02
989.34	226.99
989.63	227.02
989.92	226.99
990.22	226.96
990.51	226.96
990.80	226.95
991.09	226.96
991.38	226.98
991.67	226.95
991.96	226.94
992.25	226.94
992.54	226.91
992.83	226.91
993.12	226.91
993.41	226.94
993.70	227.01
993.99	227.03
994.28	227.06
994.58	227.09
994.87	227.07
995.16	227.06
995.45	227.04
995.74	226.99
996.03	227.01
996.32	227.05
996.61	227.08
996.90	227.09
997.19	227.08
997.48	227.07
997.77	227.06
998.06	227.07
998.34	227.05
998.63	227.05
998.92	227.06
999.21	227.07
999.50	227.07
999.79	227.01
1000.08	227.00
1000.37	227.01
1000.66	226.99
1000.95	227.05
1001.24	227.07
1001.53	227.08
1001.82	227.07
1002.11	227.03
1002.40	227.04
1002.68	227.07
1002.97	227.20
1003.26	227.19
1003.55	227.16
1003.84	227.17
1004.13	227.22
1004.42	227.23
1004.71	227.23
1004.99	227.22
1005.28	227.27
1005.57	227.25
1005.86	227.23
1006.15	227.21
1006.44	227.18
1006.72	227.20
1007.01	227.16
1007.30	227.16
1007.59	227.14
1007.88	227.14
1008.17	227.14
1008.45	227.10
1008.74	227.03
1009.03	226.94
1009.32	226.95
1009.60	226.95
1009.89	226.94
1010.18	226.87
1010.47	226.86
1010.76	226.85
1011.04	226.85
1011.33	226.85
1011.62	226.86
1011.91	226.87
1012.19	226.89
1012.48	226.90
1012.77	226.89
1013.05	226.96
1013.34	226.97
1013.63	226.95
1013.92	226.97
1014.20	226.97
1014.49	226.98
1014.78	227.00
1015.06	226.94
1015.35	226.94
1015.64	226.95
1015.92	226.98
1016.21	226.99
1016.50	227.00
1016.78	227.02
1017.07	227.03
1017.36	227.00
1017.64	226.96
1017.93	226.97
1018.22	226.95
1018.50	226.95
1018.79	226.95
1019.08	226.87
1019.36	226.88
1019.65	226.88
1019.93	226.92
1020.22	226.95
1020.51	227.05
1020.79	227.03
1021.08	226.57
1021.36	226.84
1021.65	227.07
1021.94	226.77
1022.22	227.07
1022.51	226.81
1022.79	227.73
1023.08	227.25
1023.36	229.17
1023.65	226.58
>>>>>End Processed Spectral Data<<<<<
