SpectraSuite Data File
++++++++++++++++++++++++++++++++++++
Date: Tue Oct 06 13:02:55 EDT 2015
User: lab3
Dark Spectrum Present: No
Reference Spectrum Present: No
Number of Sampled Component Spectra: 1
Spectrometers: USB2E7196
Integration Time (usec): 66000 (USB2E7196)
Spectra Averaged: 1000 (USB2E7196)
Boxcar Smoothing: 10 (USB2E7196)
Correct for Electrical Dark: No (USB2E7196)
Strobe/Lamp Enabled: No (USB2E7196)
Correct for Detector Non-linearity: No (USB2E7196)
Correct for Stray Light: No (USB2E7196)
Number of Pixels in Processed Spectrum: 2048
>>>>>Begin Processed Spectral Data<<<<<
339.09	0.00
339.48	216.86
339.86	218.26
340.24	219.53
340.63	220.99
341.01	224.82
341.39	223.80
341.78	225.02
342.16	226.42
342.54	226.56
342.93	215.08
343.31	225.95
343.69	226.48
344.07	226.94
344.46	227.39
344.84	227.79
345.22	228.00
345.60	228.26
345.99	228.48
346.37	228.63
346.75	228.75
347.13	228.85
347.52	228.94
347.90	229.07
348.28	229.12
348.66	229.20
349.05	229.19
349.43	229.27
349.81	229.33
350.19	229.41
350.57	229.49
350.96	229.59
351.34	229.70
351.72	229.80
352.10	229.91
352.48	229.98
352.87	230.02
353.25	230.08
353.63	230.13
354.01	230.18
354.39	230.25
354.77	230.34
355.15	230.46
355.54	230.49
355.92	230.50
356.30	230.57
356.68	230.75
357.06	230.83
357.44	230.86
357.82	230.91
358.20	231.12
358.58	231.17
358.97	231.25
359.35	231.34
359.73	231.44
360.11	231.49
360.49	231.57
360.87	231.61
361.25	231.68
361.63	231.79
362.01	231.85
362.39	231.87
362.77	231.93
363.15	231.94
363.53	231.98
363.91	232.02
364.29	232.04
364.67	231.90
365.05	231.91
365.43	231.96
365.81	232.00
366.19	231.95
366.57	232.05
366.95	232.04
367.33	232.00
367.71	231.98
368.09	232.02
368.47	232.00
368.85	232.00
369.23	232.03
369.61	231.95
369.99	232.00
370.37	232.00
370.75	232.11
371.13	232.07
371.51	232.02
371.89	232.00
372.27	231.98
372.65	231.97
373.03	231.93
373.41	231.88
373.78	231.83
374.16	231.71
374.54	231.61
374.92	231.54
375.30	231.51
375.68	231.44
376.06	231.39
376.44	231.33
376.82	231.29
377.19	231.24
377.57	231.19
377.95	231.08
378.33	231.02
378.71	230.81
379.09	230.76
379.47	230.74
379.84	230.67
380.22	230.60
380.60	230.53
380.98	230.47
381.36	230.43
381.73	230.36
382.11	230.34
382.49	230.30
382.87	230.24
383.25	230.20
383.62	230.36
384.00	230.28
384.38	230.25
384.76	230.24
385.13	230.26
385.51	230.22
385.89	230.18
386.27	230.15
386.64	230.14
387.02	230.09
387.40	230.05
387.78	230.04
388.15	230.01
388.53	229.99
388.91	229.97
389.29	229.94
389.66	229.94
390.04	229.91
390.42	229.90
390.79	229.90
391.17	229.89
391.55	229.68
391.92	229.69
392.30	229.70
392.68	229.65
393.05	229.63
393.43	229.65
393.81	229.66
394.18	229.64
394.56	229.65
394.94	229.71
395.31	229.72
395.69	229.78
396.06	229.83
396.44	229.86
396.82	229.89
397.19	230.02
397.57	230.05
397.95	230.12
398.32	230.12
398.70	230.19
399.07	230.29
399.45	230.34
399.82	230.41
400.20	230.48
400.58	230.57
400.95	230.59
401.33	230.71
401.70	230.94
402.08	231.09
402.45	231.22
402.83	231.38
403.20	231.55
403.58	231.68
403.95	231.89
404.33	232.11
404.71	232.33
405.08	232.61
405.46	232.85
405.83	233.13
406.21	233.41
406.58	233.74
406.96	234.05
407.33	234.42
407.70	234.84
408.08	235.38
408.45	235.87
408.83	236.40
409.20	236.88
409.58	237.32
409.95	237.91
410.33	238.57
410.70	239.20
411.08	239.91
411.45	240.69
411.82	241.47
412.20	242.37
412.57	243.44
412.95	244.31
413.32	245.42
413.69	246.55
414.07	247.77
414.44	249.10
414.82	250.45
415.19	252.03
415.56	253.63
415.94	255.31
416.31	257.19
416.68	259.09
417.06	261.27
417.43	263.30
417.81	265.64
418.18	268.03
418.55	270.65
418.93	273.38
419.30	276.23
419.67	279.25
420.04	282.35
420.42	285.60
420.79	289.34
421.16	293.11
421.54	296.95
421.91	300.95
422.28	305.10
422.66	309.58
423.03	313.84
423.40	318.31
423.77	323.09
424.15	327.98
424.52	333.05
424.89	338.55
425.26	344.00
425.64	349.07
426.01	354.73
426.38	360.55
426.75	366.50
427.13	372.59
427.50	378.97
427.87	385.58
428.24	392.22
428.61	398.57
428.99	405.43
429.36	413.00
429.73	420.25
430.10	427.46
430.47	434.83
430.85	442.45
431.22	450.59
431.59	458.91
431.96	467.03
432.33	476.07
432.70	484.66
433.08	494.88
433.45	504.49
433.82	513.94
434.19	524.47
434.56	534.86
434.93	544.91
435.30	554.89
435.68	566.23
436.05	577.29
436.42	588.40
436.79	598.53
437.16	609.42
437.53	621.17
437.90	632.96
438.27	644.46
438.64	656.82
439.01	668.07
439.38	678.50
439.75	688.53
440.13	699.95
440.50	710.82
440.87	719.45
441.24	728.93
441.61	739.37
441.98	747.05
442.35	756.15
442.72	765.51
443.09	774.48
443.46	780.40
443.83	784.84
444.20	788.47
444.57	793.83
444.94	797.14
445.31	800.42
445.68	803.22
446.05	805.35
446.42	805.17
446.79	804.79
447.16	804.45
447.53	804.29
447.90	801.07
448.27	797.92
448.64	792.92
449.01	789.62
449.37	782.58
449.74	776.24
450.11	767.95
450.48	758.75
450.85	749.47
451.22	741.36
451.59	733.56
451.96	726.59
452.33	716.33
452.70	707.15
453.07	696.03
453.43	684.92
453.80	674.12
454.17	663.80
454.54	654.15
454.91	643.24
455.28	632.87
455.65	623.09
456.02	612.84
456.38	604.58
456.75	593.87
457.12	585.23
457.49	576.50
457.86	568.30
458.23	561.11
458.59	553.14
458.96	545.03
459.33	537.83
459.70	530.53
460.07	524.87
460.43	518.23
460.80	512.00
461.17	506.58
461.54	500.78
461.91	495.33
462.27	489.79
462.64	485.26
463.01	480.08
463.38	474.92
463.74	470.22
464.11	466.06
464.48	462.35
464.85	458.31
465.21	455.18
465.58	451.72
465.95	447.77
466.32	444.63
466.68	441.51
467.05	438.41
467.42	435.38
467.78	432.16
468.15	429.21
468.52	427.05
468.88	424.20
469.25	421.59
469.62	419.50
469.98	417.21
470.35	415.19
470.72	413.37
471.08	411.47
471.45	409.89
471.82	408.12
472.18	406.27
472.55	405.06
472.92	403.59
473.28	402.43
473.65	401.19
474.02	400.05
474.38	399.09
474.75	398.49
475.11	397.66
475.48	397.26
475.85	396.84
476.21	396.61
476.58	396.46
476.94	396.66
477.31	396.71
477.67	396.86
478.04	397.15
478.41	397.55
478.77	398.14
479.14	398.51
479.50	399.26
479.87	400.24
480.23	401.20
480.60	402.11
480.96	403.07
481.33	404.47
481.69	405.82
482.06	407.17
482.42	408.45
482.79	409.99
483.15	411.81
483.52	413.87
483.88	415.87
484.25	417.98
484.61	420.18
484.98	422.54
485.34	425.19
485.71	427.97
486.07	430.94
486.44	433.83
486.80	437.13
487.17	440.47
487.53	444.11
487.90	447.95
488.26	452.15
488.62	456.54
488.99	460.93
489.35	465.60
489.72	470.63
490.08	475.89
490.44	481.26
490.81	486.81
491.17	492.48
491.54	498.50
491.90	504.67
492.26	511.27
492.63	518.17
492.99	525.34
493.36	532.75
493.72	540.58
494.08	548.54
494.45	556.88
494.81	565.65
495.17	574.63
495.54	584.07
495.90	593.93
496.26	604.05
496.63	614.40
496.99	625.09
497.35	636.22
497.72	647.70
498.08	659.62
498.44	671.79
498.80	684.75
499.17	698.06
499.53	711.80
499.89	725.86
500.26	740.04
500.62	754.53
500.98	769.69
501.34	785.03
501.71	801.08
502.07	817.43
502.43	834.18
502.79	851.07
503.16	868.44
503.52	886.01
503.88	904.02
504.24	922.51
504.60	941.25
504.97	960.44
505.33	980.07
505.69	1000.61
506.05	1021.25
506.41	1041.80
506.78	1062.66
507.14	1084.33
507.50	1106.45
507.86	1128.98
508.22	1151.62
508.59	1174.10
508.95	1197.41
509.31	1221.17
509.67	1245.60
510.03	1269.87
510.39	1294.51
510.75	1319.16
511.12	1343.93
511.48	1368.69
511.84	1393.53
512.20	1418.85
512.56	1444.54
512.92	1470.08
513.28	1495.36
513.64	1520.94
514.00	1546.59
514.37	1572.37
514.73	1597.90
515.09	1622.99
515.45	1648.30
515.81	1673.71
516.17	1699.25
516.53	1724.07
516.89	1748.89
517.25	1773.70
517.61	1798.43
517.97	1823.37
518.33	1847.84
518.69	1872.19
519.05	1896.73
519.41	1921.26
519.77	1945.66
520.13	1969.81
520.49	1993.72
520.85	2017.64
521.21	2041.46
521.57	2065.43
521.93	2088.40
522.29	2111.77
522.65	2134.69
523.01	2157.47
523.37	2179.34
523.73	2201.60
524.09	2224.05
524.45	2246.43
524.81	2267.95
525.17	2289.32
525.53	2309.98
525.89	2331.02
526.25	2351.61
526.61	2371.08
526.97	2390.66
527.33	2409.71
527.68	2427.90
528.04	2445.55
528.40	2462.18
528.76	2479.28
529.12	2495.25
529.48	2511.70
529.84	2526.85
530.20	2543.02
530.56	2558.05
530.91	2573.07
531.27	2587.11
531.63	2600.18
531.99	2613.05
532.35	2624.34
532.71	2635.67
533.07	2647.31
533.42	2657.40
533.78	2668.24
534.14	2679.29
534.50	2688.90
534.86	2698.69
535.21	2706.57
535.57	2714.66
535.93	2723.10
536.29	2730.39
536.65	2737.89
537.00	2743.22
537.36	2749.00
537.72	2753.10
538.08	2756.89
538.44	2759.86
538.79	2763.20
539.15	2765.86
539.51	2767.86
539.87	2770.59
540.22	2771.17
540.58	2772.31
540.94	2772.96
541.29	2772.26
541.65	2770.00
542.01	2767.90
542.37	2764.75
542.72	2763.36
543.08	2760.47
543.44	2757.43
543.79	2752.63
544.15	2747.75
544.51	2743.62
544.87	2737.52
545.22	2730.88
545.58	2724.66
545.94	2719.14
546.29	2711.72
546.65	2703.68
547.01	2695.73
547.36	2687.35
547.72	2678.97
548.07	2669.30
548.43	2659.55
548.79	2648.71
549.14	2638.93
549.50	2628.93
549.86	2618.37
550.21	2605.94
550.57	2594.86
550.92	2582.02
551.28	2569.91
551.64	2557.97
551.99	2546.13
552.35	2534.37
552.70	2522.41
553.06	2510.64
553.41	2497.64
553.77	2484.50
554.13	2471.58
554.48	2457.82
554.84	2443.64
555.19	2430.35
555.55	2416.27
555.90	2402.33
556.26	2389.32
556.61	2375.58
556.97	2360.86
557.32	2346.50
557.68	2332.36
558.03	2317.68
558.39	2303.79
558.74	2290.07
559.10	2274.42
559.45	2259.27
559.81	2244.84
560.16	2230.02
560.52	2214.92
560.87	2200.65
561.23	2185.87
561.58	2171.39
561.94	2156.25
562.29	2141.28
562.64	2126.17
563.00	2111.23
563.35	2096.90
563.71	2082.28
564.06	2067.31
564.42	2052.89
564.77	2038.55
565.12	2024.59
565.48	2010.41
565.83	1995.98
566.19	1981.66
566.54	1967.78
566.89	1952.70
567.25	1937.16
567.60	1922.89
567.96	1907.98
568.31	1892.57
568.66	1878.01
569.02	1863.48
569.37	1849.13
569.72	1834.99
570.08	1820.81
570.43	1806.53
570.78	1791.49
571.14	1776.45
571.49	1761.82
571.84	1747.90
572.20	1732.67
572.55	1717.72
572.90	1702.28
573.26	1686.85
573.61	1671.20
573.96	1656.17
574.31	1641.79
574.67	1627.88
575.02	1613.00
575.37	1597.92
575.72	1582.70
576.08	1567.85
576.43	1553.07
576.78	1538.34
577.13	1523.76
577.49	1509.10
577.84	1494.47
578.19	1479.96
578.54	1465.53
578.90	1450.92
579.25	1435.93
579.60	1422.05
579.95	1408.08
580.30	1394.33
580.66	1380.69
581.01	1367.16
581.36	1353.45
581.71	1339.72
582.06	1326.07
582.42	1312.61
582.77	1299.56
583.12	1286.75
583.47	1273.79
583.82	1260.96
584.17	1248.10
584.53	1235.29
584.88	1222.91
585.23	1210.24
585.58	1197.86
585.93	1185.52
586.28	1173.83
586.63	1161.96
586.98	1150.02
587.34	1138.40
587.69	1126.62
588.04	1115.13
588.39	1103.83
588.74	1092.45
589.09	1081.43
589.44	1069.85
589.79	1058.86
590.14	1047.98
590.49	1037.28
590.84	1026.80
591.19	1016.37
591.54	1005.99
591.89	995.36
592.25	984.78
592.60	974.23
592.95	963.96
593.30	953.70
593.65	943.37
594.00	933.32
594.35	923.98
594.70	914.13
595.05	904.93
595.40	895.56
595.75	886.03
596.10	876.98
596.45	867.78
596.80	859.00
597.15	850.21
597.50	841.45
597.85	832.99
598.19	824.51
598.54	816.04
598.89	807.70
599.24	799.80
599.59	792.00
599.94	784.66
600.29	777.10
600.64	769.64
600.99	762.15
601.34	754.89
601.69	747.01
602.04	739.78
602.39	732.66
602.74	725.74
603.08	718.90
603.43	712.09
603.78	705.39
604.13	698.85
604.48	692.26
604.83	685.92
605.18	679.58
605.53	673.33
605.87	666.96
606.22	660.90
606.57	654.78
606.92	648.54
607.27	642.48
607.62	636.75
607.96	631.10
608.31	625.75
608.66	620.23
609.01	615.00
609.36	609.93
609.70	604.76
610.05	599.56
610.40	594.52
610.75	589.42
611.10	584.64
611.44	579.76
611.79	575.02
612.14	570.23
612.49	565.46
612.83	560.90
613.18	556.59
613.53	552.28
613.88	547.98
614.22	543.89
614.57	539.69
614.92	535.53
615.27	531.53
615.61	527.50
615.96	523.63
616.31	519.75
616.65	515.85
617.00	512.07
617.35	508.41
617.70	504.81
618.04	501.35
618.39	497.82
618.74	494.46
619.08	491.01
619.43	487.67
619.78	484.44
620.12	481.24
620.47	478.22
620.82	475.15
621.16	472.17
621.51	469.32
621.85	466.51
622.20	463.76
622.55	460.98
622.89	458.26
623.24	455.69
623.59	453.13
623.93	450.64
624.28	448.23
624.62	446.01
624.97	443.78
625.32	441.41
625.66	439.04
626.01	436.73
626.35	434.62
626.70	432.42
627.04	430.40
627.39	428.28
627.73	426.19
628.08	424.22
628.43	422.31
628.77	420.37
629.12	418.52
629.46	416.64
629.81	414.91
630.15	413.11
630.50	411.29
630.84	409.55
631.19	407.91
631.53	406.30
631.88	404.52
632.22	402.80
632.57	401.42
632.91	400.03
633.26	398.69
633.60	397.28
633.95	395.95
634.29	394.49
634.64	393.13
634.98	391.63
635.32	390.29
635.67	389.03
636.01	387.77
636.36	386.55
636.70	385.47
637.05	384.24
637.39	383.13
637.73	382.04
638.08	380.98
638.42	379.90
638.77	378.72
639.11	377.54
639.45	376.44
639.80	375.29
640.14	374.16
640.49	373.00
640.83	371.92
641.17	370.82
641.52	369.78
641.86	368.77
642.20	367.92
642.55	366.89
642.89	365.87
643.23	364.87
643.58	364.00
643.92	362.97
644.26	362.01
644.61	361.12
644.95	360.20
645.29	359.29
645.64	358.32
645.98	357.44
646.32	356.62
646.66	355.74
647.01	354.84
647.35	354.04
647.69	353.24
648.04	352.45
648.38	351.65
648.72	350.89
649.06	350.14
649.41	349.34
649.75	348.59
650.09	347.88
650.43	347.16
650.78	346.38
651.12	345.65
651.46	344.94
651.80	344.23
652.14	343.52
652.49	342.84
652.83	342.13
653.17	341.45
653.51	340.81
653.85	340.22
654.20	339.60
654.54	338.89
654.88	338.23
655.22	337.61
655.56	336.90
655.90	336.22
656.25	335.55
656.59	334.90
656.93	334.33
657.27	333.77
657.61	333.13
657.95	332.57
658.29	331.98
658.64	331.48
658.98	330.88
659.32	330.30
659.66	329.72
660.00	329.17
660.34	328.62
660.68	328.03
661.02	327.40
661.36	326.81
661.70	326.26
662.05	325.72
662.39	325.24
662.73	324.81
663.07	324.42
663.41	323.96
663.75	323.42
664.09	322.88
664.43	322.28
664.77	321.80
665.11	321.20
665.45	320.69
665.79	320.13
666.13	319.58
666.47	319.03
666.81	318.50
667.15	317.91
667.49	317.45
667.83	317.03
668.17	316.60
668.51	316.17
668.85	315.76
669.19	315.39
669.53	314.84
669.87	314.35
670.21	313.87
670.55	313.40
670.89	313.06
671.23	312.63
671.57	312.21
671.91	311.81
672.25	311.45
672.58	311.08
672.92	310.62
673.26	310.25
673.60	309.86
673.94	309.48
674.28	309.13
674.62	308.76
674.96	308.30
675.30	307.88
675.64	307.47
675.97	307.02
676.31	306.53
676.65	306.10
676.99	305.73
677.33	305.26
677.67	304.82
678.01	304.29
678.34	303.85
678.68	303.47
679.02	303.00
679.36	302.57
679.70	302.11
680.04	301.68
680.37	301.24
680.71	300.84
681.05	300.43
681.39	300.01
681.73	299.53
682.06	299.06
682.40	298.66
682.74	298.27
683.08	297.91
683.42	297.48
683.75	297.07
684.09	296.58
684.43	296.14
684.77	295.69
685.10	295.31
685.44	294.94
685.78	294.52
686.12	294.12
686.45	293.68
686.79	293.23
687.13	292.85
687.46	292.41
687.80	291.97
688.14	291.49
688.48	291.06
688.81	290.63
689.15	290.29
689.49	289.83
689.82	289.37
690.16	288.86
690.50	288.44
690.83	288.03
691.17	287.58
691.51	287.17
691.84	286.80
692.18	286.37
692.52	285.90
692.85	285.47
693.19	285.11
693.52	284.71
693.86	284.31
694.20	283.88
694.53	283.48
694.87	283.04
695.21	282.62
695.54	282.21
695.88	281.76
696.21	281.27
696.55	280.84
696.88	280.41
697.22	280.00
697.56	279.60
697.89	279.14
698.23	278.72
698.56	278.28
698.90	277.85
699.23	277.41
699.57	277.01
699.90	276.58
700.24	276.10
700.58	275.71
700.91	275.35
701.25	275.12
701.58	274.79
701.92	274.46
702.25	274.11
702.59	273.71
702.92	273.33
703.26	272.94
703.59	272.56
703.93	272.32
704.26	271.95
704.60	271.56
704.93	271.17
705.26	270.79
705.60	270.46
705.93	270.03
706.27	269.72
706.60	269.39
706.94	269.08
707.27	268.70
707.61	268.32
707.94	267.91
708.27	267.39
708.61	266.95
708.94	266.54
709.28	266.17
709.61	265.81
709.94	265.51
710.28	265.21
710.61	264.90
710.95	264.44
711.28	264.23
711.61	263.91
711.95	263.63
712.28	263.29
712.61	262.95
712.95	262.71
713.28	262.46
713.61	262.11
713.95	261.75
714.28	261.46
714.61	261.14
714.95	260.83
715.28	260.53
715.61	260.24
715.95	259.97
716.28	259.67
716.61	259.41
716.95	259.06
717.28	258.76
717.61	258.45
717.94	258.17
718.28	257.76
718.61	257.48
718.94	257.18
719.27	256.94
719.61	256.69
719.94	256.42
720.27	256.06
720.60	255.80
720.94	255.54
721.27	255.30
721.60	255.08
721.93	254.82
722.27	254.63
722.60	254.41
722.93	254.14
723.26	253.91
723.59	253.66
723.93	253.46
724.26	253.24
724.59	253.01
724.92	252.80
725.25	252.63
725.59	252.42
725.92	252.23
726.25	252.01
726.58	251.79
726.91	251.55
727.24	251.35
727.57	251.15
727.91	250.90
728.24	250.72
728.57	250.50
728.90	250.33
729.23	250.07
729.56	249.93
729.89	249.75
730.22	249.54
730.55	249.34
730.89	249.13
731.22	248.93
731.55	248.73
731.88	248.54
732.21	248.32
732.54	248.11
732.87	247.92
733.20	247.74
733.53	247.57
733.86	247.40
734.19	247.20
734.52	247.05
734.85	247.02
735.18	246.81
735.51	246.70
735.84	246.53
736.17	246.41
736.50	246.14
736.83	246.17
737.16	246.01
737.49	245.86
737.82	245.69
738.15	245.55
738.48	245.39
738.81	245.22
739.14	245.04
739.47	244.88
739.80	244.72
740.13	244.58
740.46	244.40
740.79	244.24
741.12	244.10
741.45	243.92
741.78	243.66
742.11	243.56
742.44	243.37
742.77	243.24
743.10	243.07
743.43	242.93
743.75	242.61
744.08	242.73
744.41	242.57
744.74	242.42
745.07	242.26
745.40	242.17
745.73	242.11
746.06	241.99
746.39	241.88
746.71	241.73
747.04	241.56
747.37	241.43
747.70	241.33
748.03	241.19
748.36	241.10
748.68	240.99
749.01	240.82
749.34	240.70
749.67	240.59
750.00	240.49
750.33	240.51
750.65	240.40
750.98	240.03
751.31	239.92
751.64	239.83
751.97	239.81
752.29	239.67
752.62	239.47
752.95	239.35
753.28	239.21
753.60	239.12
753.93	239.06
754.26	238.96
754.59	238.80
754.91	238.68
755.24	238.56
755.57	238.45
755.90	238.34
756.22	238.22
756.55	238.08
756.88	237.94
757.20	237.73
757.53	237.58
757.86	237.49
758.19	237.41
758.51	237.31
758.84	237.12
759.17	237.02
759.49	236.93
759.82	236.93
760.15	236.86
760.47	236.76
760.80	236.62
761.13	236.58
761.45	236.50
761.78	236.42
762.11	236.34
762.43	236.24
762.76	236.17
763.08	236.11
763.41	236.04
763.74	235.97
764.06	235.89
764.39	235.83
764.71	235.74
765.04	235.64
765.37	235.56
765.69	235.47
766.02	235.40
766.34	235.33
766.67	235.18
767.00	235.14
767.32	235.17
767.65	235.21
767.97	235.12
768.30	235.05
768.62	234.98
768.95	234.90
769.27	234.83
769.60	234.78
769.92	234.69
770.25	234.59
770.57	234.51
770.90	234.45
771.22	234.37
771.55	234.33
771.87	234.29
772.20	234.23
772.52	234.33
772.85	234.49
773.17	234.44
773.50	234.39
773.82	234.30
774.15	234.15
774.47	234.00
774.80	233.92
775.12	233.89
775.45	233.83
775.77	233.79
776.09	233.77
776.42	233.73
776.74	233.74
777.07	233.71
777.39	233.67
777.72	233.62
778.04	233.60
778.36	233.55
778.69	233.50
779.01	233.47
779.33	233.26
779.66	233.01
779.98	232.95
780.31	232.92
780.63	232.95
780.95	232.96
781.28	232.93
781.60	232.88
781.92	232.84
782.25	232.80
782.57	232.76
782.89	232.70
783.22	232.64
783.54	232.57
783.86	232.55
784.19	232.51
784.51	232.53
784.83	232.47
785.16	232.43
785.48	232.40
785.80	232.36
786.12	232.35
786.45	232.33
786.77	232.32
787.09	232.28
787.42	232.19
787.74	232.15
788.06	232.13
788.38	232.11
788.71	232.07
789.03	232.05
789.35	232.05
789.67	232.01
789.99	232.00
790.32	231.95
790.64	231.94
790.96	232.08
791.28	231.99
791.61	231.96
791.93	231.95
792.25	231.91
792.57	232.02
792.89	231.98
793.21	231.97
793.54	231.92
793.86	231.88
794.18	231.86
794.50	231.81
794.82	231.78
795.14	231.78
795.47	231.79
795.79	231.77
796.11	231.71
796.43	231.69
796.75	231.67
797.07	231.66
797.39	231.64
797.71	231.48
798.04	231.47
798.36	231.46
798.68	231.43
799.00	231.42
799.32	231.30
799.64	231.31
799.96	231.28
800.28	231.29
800.60	231.28
800.92	231.27
801.24	231.25
801.56	231.24
801.89	231.20
802.21	231.19
802.53	231.14
802.85	231.17
803.17	231.23
803.49	231.16
803.81	231.13
804.13	231.10
804.45	231.06
804.77	231.06
805.09	231.05
805.41	231.02
805.73	230.98
806.05	230.92
806.37	230.89
806.69	230.87
807.01	230.84
807.33	230.83
807.65	230.76
807.97	230.82
808.28	230.78
808.60	230.76
808.92	230.71
809.24	230.81
809.56	230.75
809.88	230.68
810.20	230.68
810.52	230.69
810.84	230.64
811.16	230.62
811.48	230.59
811.80	230.63
812.12	230.62
812.43	230.64
812.75	230.65
813.07	230.63
813.39	230.63
813.71	230.60
814.03	230.57
814.35	230.56
814.67	230.48
814.98	230.46
815.30	230.45
815.62	230.42
815.94	230.29
816.26	230.30
816.58	230.27
816.89	230.27
817.21	230.22
817.53	230.22
817.85	230.22
818.17	230.20
818.48	230.12
818.80	230.14
819.12	230.09
819.44	230.05
819.76	230.02
820.07	230.00
820.39	229.99
820.71	230.00
821.03	230.00
821.34	229.98
821.66	229.99
821.98	230.01
822.30	230.00
822.61	230.10
822.93	230.06
823.25	230.04
823.57	230.01
823.88	230.02
824.20	230.01
824.52	230.03
824.83	230.02
825.15	230.00
825.47	229.99
825.79	230.00
826.10	230.00
826.42	229.98
826.74	229.97
827.05	229.95
827.37	229.94
827.69	229.92
828.00	229.91
828.32	229.90
828.64	229.85
828.95	229.95
829.27	229.88
829.58	229.87
829.90	229.89
830.22	229.90
830.53	229.87
830.85	229.85
831.17	229.80
831.48	229.79
831.80	229.78
832.11	229.77
832.43	229.72
832.75	229.71
833.06	229.80
833.38	229.76
833.69	229.74
834.01	229.75
834.32	229.74
834.64	229.73
834.96	229.72
835.27	229.71
835.59	229.64
835.90	229.61
836.22	229.60
836.53	229.56
836.85	229.54
837.16	229.72
837.48	229.70
837.79	229.75
838.11	229.75
838.42	229.75
838.74	229.76
839.05	229.75
839.37	229.75
839.68	229.64
840.00	229.64
840.31	229.67
840.63	229.64
840.94	229.61
841.26	229.58
841.57	229.57
841.88	229.59
842.20	229.56
842.51	229.54
842.83	229.54
843.14	229.69
843.46	229.67
843.77	229.56
844.08	229.55
844.40	229.49
844.71	229.48
845.03	229.46
845.34	229.45
845.65	229.43
845.97	229.42
846.28	229.43
846.60	229.43
846.91	229.40
847.22	229.39
847.54	229.43
847.85	229.44
848.16	229.42
848.48	229.40
848.79	229.46
849.10	229.47
849.42	229.47
849.73	229.31
850.04	229.32
850.36	229.26
850.67	229.29
850.98	229.30
851.30	229.31
851.61	229.31
851.92	229.31
852.23	229.37
852.55	229.38
852.86	229.39
853.17	229.40
853.49	229.44
853.80	229.48
854.11	229.49
854.42	229.51
854.74	229.49
855.05	229.49
855.36	229.40
855.67	229.40
855.99	229.41
856.30	229.60
856.61	229.60
856.92	229.59
857.23	229.59
857.55	229.56
857.86	229.55
858.17	229.57
858.48	229.54
858.79	229.50
859.11	229.52
859.42	229.50
859.73	229.47
860.04	229.46
860.35	229.41
860.66	229.35
860.98	229.34
861.29	229.37
861.60	229.35
861.91	229.39
862.22	229.37
862.53	229.36
862.84	229.16
863.16	229.20
863.47	229.17
863.78	229.15
864.09	229.16
864.40	229.17
864.71	229.16
865.02	229.19
865.33	229.16
865.64	229.13
865.95	229.13
866.27	229.25
866.58	229.22
866.89	229.23
867.20	229.23
867.51	229.19
867.82	229.18
868.13	229.23
868.44	229.19
868.75	229.23
869.06	229.22
869.37	229.24
869.68	229.19
869.99	229.22
870.30	229.24
870.61	229.25
870.92	229.22
871.23	229.20
871.54	229.22
871.85	229.27
872.16	229.27
872.47	229.25
872.78	229.15
873.09	229.17
873.40	229.15
873.71	229.15
874.02	229.17
874.33	229.15
874.64	229.12
874.95	229.15
875.26	229.10
875.56	229.09
875.87	229.08
876.18	229.07
876.49	229.24
876.80	229.21
877.11	229.17
877.42	229.19
877.73	229.20
878.04	229.16
878.35	229.15
878.66	229.15
878.96	229.16
879.27	229.14
879.58	229.13
879.89	229.13
880.20	229.18
880.51	229.17
880.82	229.17
881.12	229.18
881.43	229.14
881.74	229.11
882.05	229.10
882.36	229.11
882.67	229.12
882.97	228.93
883.28	228.91
883.59	228.91
883.90	228.92
884.21	228.94
884.51	228.94
884.82	228.90
885.13	228.90
885.44	228.89
885.74	228.89
886.05	228.88
886.36	228.87
886.67	228.81
886.98	228.90
887.28	228.91
887.59	228.90
887.90	228.90
888.20	228.90
888.51	228.94
888.82	228.92
889.13	228.93
889.43	229.08
889.74	229.07
890.05	229.07
890.35	229.04
890.66	229.01
890.97	229.00
891.28	228.98
891.58	228.99
891.89	228.99
892.20	228.97
892.50	228.95
892.81	228.94
893.12	228.94
893.42	228.85
893.73	228.86
894.04	228.85
894.34	228.88
894.65	228.88
894.95	228.86
895.26	228.87
895.57	228.93
895.87	228.76
896.18	228.79
896.48	228.80
896.79	228.80
897.10	228.82
897.40	228.82
897.71	228.86
898.01	228.84
898.32	228.85
898.63	228.86
898.93	228.88
899.24	228.89
899.54	228.87
899.85	228.87
900.15	228.85
900.46	228.86
900.76	228.86
901.07	228.85
901.38	228.84
901.68	228.85
901.99	228.76
902.29	228.77
902.60	228.76
902.90	228.75
903.21	228.75
903.51	228.75
903.82	228.79
904.12	228.79
904.43	228.80
904.73	228.79
905.03	228.81
905.34	228.98
905.64	228.96
905.95	228.98
906.25	228.96
906.56	228.96
906.86	228.96
907.17	228.95
907.47	228.97
907.77	228.96
908.08	228.93
908.38	228.94
908.69	228.96
908.99	228.97
909.30	228.98
909.60	228.98
909.90	228.97
910.21	228.91
910.51	228.87
910.81	228.87
911.12	228.88
911.42	228.87
911.73	228.69
912.03	228.71
912.33	228.75
912.64	228.74
912.94	228.72
913.24	228.70
913.55	228.68
913.85	228.67
914.15	228.70
914.46	228.73
914.76	228.72
915.06	228.71
915.37	228.69
915.67	228.68
915.97	228.68
916.27	228.66
916.58	228.68
916.88	228.68
917.18	228.66
917.49	228.78
917.79	228.77
918.09	228.80
918.39	228.83
918.70	228.81
919.00	228.82
919.30	228.90
919.60	228.89
919.91	228.86
920.21	228.87
920.51	228.83
920.81	228.81
921.12	228.83
921.42	228.82
921.72	228.84
922.02	228.84
922.32	228.86
922.63	228.86
922.93	228.96
923.23	228.97
923.53	228.95
923.83	228.84
924.13	228.86
924.44	228.84
924.74	228.86
925.04	228.90
925.34	228.90
925.64	228.83
925.94	228.83
926.24	228.94
926.55	228.91
926.85	228.93
927.15	228.94
927.45	228.94
927.75	228.95
928.05	228.94
928.35	228.93
928.65	228.96
928.95	228.98
929.26	228.89
929.56	228.92
929.86	228.96
930.16	228.94
930.46	228.93
930.76	228.94
931.06	228.86
931.36	228.81
931.66	228.84
931.96	228.86
932.26	228.87
932.56	228.79
932.86	228.81
933.16	228.80
933.46	228.79
933.76	228.75
934.06	228.78
934.36	228.84
934.66	228.83
934.96	228.81
935.26	228.81
935.56	228.83
935.86	228.78
936.16	228.75
936.46	228.73
936.76	228.71
937.06	228.69
937.36	228.70
937.66	228.71
937.96	228.69
938.26	228.65
938.56	228.64
938.86	228.66
939.16	228.70
939.46	228.73
939.76	228.73
940.06	228.74
940.35	228.70
940.65	228.62
940.95	228.63
941.25	228.59
941.55	228.57
941.85	228.56
942.15	228.60
942.45	228.64
942.75	228.64
943.04	228.66
943.34	228.69
943.64	228.67
943.94	228.64
944.24	228.65
944.54	228.68
944.84	228.67
945.13	228.64
945.43	228.60
945.73	228.59
946.03	228.57
946.33	228.56
946.62	228.55
946.92	228.54
947.22	228.55
947.52	228.56
947.82	228.58
948.11	228.56
948.41	228.53
948.71	228.48
949.01	228.50
949.31	228.49
949.60	228.47
949.90	228.51
950.20	228.51
950.50	228.50
950.79	228.48
951.09	228.50
951.39	228.51
951.69	228.50
951.98	228.52
952.28	228.53
952.58	228.53
952.87	228.53
953.17	228.56
953.47	228.54
953.76	228.54
954.06	228.51
954.36	228.50
954.66	228.50
954.95	228.56
955.25	228.57
955.55	228.57
955.84	228.54
956.14	228.55
956.44	228.56
956.73	228.53
957.03	228.55
957.32	228.54
957.62	228.52
957.92	228.56
958.21	228.54
958.51	228.75
958.81	228.78
959.10	228.81
959.40	228.84
959.69	228.86
959.99	228.88
960.29	228.89
960.58	228.88
960.88	228.93
961.17	228.90
961.47	228.92
961.76	228.92
962.06	228.95
962.36	228.93
962.65	228.94
962.95	228.95
963.24	228.92
963.54	228.93
963.83	228.95
964.13	228.94
964.42	228.92
964.72	228.76
965.01	228.76
965.31	228.74
965.60	228.69
965.90	228.80
966.19	228.76
966.49	228.76
966.78	228.76
967.08	228.75
967.37	228.75
967.67	228.71
967.96	228.74
968.26	228.73
968.55	228.75
968.85	228.74
969.14	228.74
969.43	228.75
969.73	228.74
970.02	228.72
970.32	228.71
970.61	228.69
970.91	228.64
971.20	228.61
971.49	228.60
971.79	228.63
972.08	228.50
972.38	228.52
972.67	228.50
972.96	228.54
973.26	228.50
973.55	228.55
973.85	228.52
974.14	228.51
974.43	228.52
974.73	228.49
975.02	228.48
975.31	228.47
975.61	228.45
975.90	228.43
976.19	228.42
976.49	228.44
976.78	228.45
977.07	228.45
977.37	228.47
977.66	228.49
977.95	228.45
978.24	228.47
978.54	228.50
978.83	228.49
979.12	228.48
979.42	228.50
979.71	228.46
980.00	228.48
980.29	228.48
980.59	228.45
980.88	228.49
981.17	228.49
981.46	228.50
981.76	228.51
982.05	228.57
982.34	228.58
982.63	228.58
982.93	228.58
983.22	228.61
983.51	228.62
983.80	228.64
984.09	228.67
984.39	228.65
984.68	228.62
984.97	228.63
985.26	228.61
985.55	228.63
985.85	228.61
986.14	228.63
986.43	228.65
986.72	228.65
987.01	228.61
987.30	228.62
987.59	228.61
987.89	228.62
988.18	228.58
988.47	228.56
988.76	228.55
989.05	228.53
989.34	228.51
989.63	228.55
989.92	228.52
990.22	228.49
990.51	228.49
990.80	228.48
991.09	228.49
991.38	228.51
991.67	228.48
991.96	228.45
992.25	228.46
992.54	228.42
992.83	228.41
993.12	228.39
993.41	228.41
993.70	228.49
993.99	228.51
994.28	228.53
994.58	228.55
994.87	228.53
995.16	228.53
995.45	228.52
995.74	228.46
996.03	228.49
996.32	228.52
996.61	228.56
996.90	228.56
997.19	228.55
997.48	228.55
997.77	228.54
998.06	228.57
998.34	228.54
998.63	228.55
998.92	228.56
999.21	228.59
999.50	228.59
999.79	228.53
1000.08	228.52
1000.37	228.52
1000.66	228.50
1000.95	228.55
1001.24	228.56
1001.53	228.59
1001.82	228.58
1002.11	228.54
1002.40	228.55
1002.68	228.58
1002.97	228.70
1003.26	228.67
1003.55	228.65
1003.84	228.67
1004.13	228.72
1004.42	228.71
1004.71	228.71
1004.99	228.70
1005.28	228.75
1005.57	228.74
1005.86	228.72
1006.15	228.72
1006.44	228.68
1006.72	228.71
1007.01	228.67
1007.30	228.68
1007.59	228.66
1007.88	228.66
1008.17	228.66
1008.45	228.63
1008.74	228.55
1009.03	228.47
1009.32	228.48
1009.60	228.48
1009.89	228.47
1010.18	228.40
1010.47	228.39
1010.76	228.39
1011.04	228.38
1011.33	228.37
1011.62	228.38
1011.91	228.38
1012.19	228.38
1012.48	228.39
1012.77	228.38
1013.05	228.44
1013.34	228.44
1013.63	228.43
1013.92	228.44
1014.20	228.43
1014.49	228.43
1014.78	228.46
1015.06	228.41
1015.35	228.41
1015.64	228.44
1015.92	228.46
1016.21	228.47
1016.50	228.49
1016.78	228.51
1017.07	228.50
1017.36	228.47
1017.64	228.45
1017.93	228.47
1018.22	228.47
1018.50	228.45
1018.79	228.45
1019.08	228.39
1019.36	228.40
1019.65	228.38
1019.93	228.43
1020.22	228.46
1020.51	228.54
1020.79	228.52
1021.08	228.38
1021.36	227.84
1021.65	228.58
1021.94	228.35
1022.22	228.62
1022.51	227.96
1022.79	229.41
1023.08	228.75
1023.36	230.24
1023.65	228.11
>>>>>End Processed Spectral Data<<<<<
