SpectraSuite Data File
++++++++++++++++++++++++++++++++++++
Date: Tue Oct 06 14:24:02 EDT 2015
User: lab3
Dark Spectrum Present: No
Reference Spectrum Present: No
Number of Sampled Component Spectra: 1
Spectrometers: USB2E7196
Integration Time (usec): 66000 (USB2E7196)
Spectra Averaged: 1000 (USB2E7196)
Boxcar Smoothing: 10 (USB2E7196)
Correct for Electrical Dark: No (USB2E7196)
Strobe/Lamp Enabled: No (USB2E7196)
Correct for Detector Non-linearity: No (USB2E7196)
Correct for Stray Light: No (USB2E7196)
Number of Pixels in Processed Spectrum: 2048
>>>>>Begin Processed Spectral Data<<<<<
339.09	0.00
339.48	215.16
339.86	216.62
340.24	217.86
340.63	219.28
341.01	223.48
341.39	221.96
341.78	223.29
342.16	224.74
342.54	225.12
342.93	213.56
343.31	224.35
343.69	224.88
344.07	225.35
344.46	225.80
344.84	226.20
345.22	226.39
345.60	226.67
345.99	226.89
346.37	227.05
346.75	227.16
347.13	227.26
347.52	227.35
347.90	227.47
348.28	227.53
348.66	227.61
349.05	227.61
349.43	227.69
349.81	227.77
350.19	227.84
350.57	227.92
350.96	228.02
351.34	228.13
351.72	228.24
352.10	228.36
352.48	228.43
352.87	228.49
353.25	228.56
353.63	228.63
354.01	228.68
354.39	228.75
354.77	228.83
355.15	228.96
355.54	228.99
355.92	229.00
356.30	229.08
356.68	229.26
357.06	229.35
357.44	229.39
357.82	229.45
358.20	229.67
358.58	229.72
358.97	229.79
359.35	229.88
359.73	229.97
360.11	230.02
360.49	230.08
360.87	230.13
361.25	230.19
361.63	230.28
362.01	230.34
362.39	230.36
362.77	230.42
363.15	230.43
363.53	230.46
363.91	230.49
364.29	230.52
364.67	230.37
365.05	230.39
365.43	230.42
365.81	230.45
366.19	230.39
366.57	230.46
366.95	230.46
367.33	230.41
367.71	230.39
368.09	230.42
368.47	230.41
368.85	230.40
369.23	230.42
369.61	230.35
369.99	230.39
370.37	230.39
370.75	230.50
371.13	230.48
371.51	230.43
371.89	230.41
372.27	230.38
372.65	230.36
373.03	230.31
373.41	230.25
373.78	230.20
374.16	230.07
374.54	229.97
374.92	229.91
375.30	229.88
375.68	229.80
376.06	229.76
376.44	229.70
376.82	229.65
377.19	229.60
377.57	229.55
377.95	229.44
378.33	229.37
378.71	229.16
379.09	229.11
379.47	229.10
379.84	229.04
380.22	228.98
380.60	228.90
380.98	228.85
381.36	228.82
381.73	228.74
382.11	228.74
382.49	228.71
382.87	228.65
383.25	228.60
383.62	228.77
384.00	228.69
384.38	228.67
384.76	228.69
385.13	228.70
385.51	228.67
385.89	228.61
386.27	228.59
386.64	228.59
387.02	228.54
387.40	228.49
387.78	228.47
388.15	228.46
388.53	228.43
388.91	228.41
389.29	228.37
389.66	228.39
390.04	228.35
390.42	228.37
390.79	228.37
391.17	228.36
391.55	228.15
391.92	228.16
392.30	228.17
392.68	228.12
393.05	228.10
393.43	228.11
393.81	228.13
394.18	228.12
394.56	228.12
394.94	228.18
395.31	228.20
395.69	228.27
396.06	228.32
396.44	228.37
396.82	228.39
397.19	228.52
397.57	228.55
397.95	228.62
398.32	228.61
398.70	228.68
399.07	228.77
399.45	228.83
399.82	228.90
400.20	228.95
400.58	229.05
400.95	229.07
401.33	229.20
401.70	229.43
402.08	229.57
402.45	229.71
402.83	229.88
403.20	230.04
403.58	230.18
403.95	230.39
404.33	230.62
404.71	230.83
405.08	231.13
405.46	231.39
405.83	231.66
406.21	231.95
406.58	232.28
406.96	232.60
407.33	232.98
407.70	233.41
408.08	233.99
408.45	234.50
408.83	235.05
409.20	235.56
409.58	236.03
409.95	236.66
410.33	237.33
410.70	237.96
411.08	238.72
411.45	239.51
411.82	240.33
412.20	241.27
412.57	242.37
412.95	243.24
413.32	244.39
413.69	245.56
414.07	246.83
414.44	248.20
414.82	249.61
415.19	251.26
415.56	252.91
415.94	254.63
416.31	256.58
416.68	258.52
417.06	260.77
417.43	262.87
417.81	265.30
418.18	267.78
418.55	270.50
418.93	273.32
419.30	276.28
419.67	279.41
420.04	282.62
420.42	286.00
420.79	289.90
421.16	293.83
421.54	297.81
421.91	301.95
422.28	306.26
422.66	310.91
423.03	315.31
423.40	319.95
423.77	324.89
424.15	329.93
424.52	335.17
424.89	340.85
425.26	346.50
425.64	351.74
426.01	357.61
426.38	363.63
426.75	369.80
427.13	376.09
427.50	382.68
427.87	389.51
428.24	396.34
428.61	402.90
428.99	409.96
429.36	417.77
429.73	425.24
430.10	432.66
430.47	440.23
430.85	448.11
431.22	456.50
431.59	465.09
431.96	473.47
432.33	482.80
432.70	491.69
433.08	502.23
433.45	512.18
433.82	521.93
434.19	532.82
434.56	543.57
434.93	554.00
435.30	564.33
435.68	576.10
436.05	587.62
436.42	599.13
436.79	609.67
437.16	621.01
437.53	633.21
437.90	645.47
438.27	657.44
438.64	670.29
439.01	682.00
439.38	692.89
439.75	703.32
440.13	715.21
440.50	726.52
440.87	735.51
441.24	745.38
441.61	756.23
441.98	764.25
442.35	773.71
442.72	783.39
443.09	792.75
443.46	798.89
443.83	803.52
444.20	807.32
444.57	812.87
444.94	816.31
445.31	819.75
445.68	822.64
446.05	824.86
446.42	824.67
446.79	824.30
447.16	823.90
447.53	823.72
447.90	820.42
448.27	817.16
448.64	811.99
449.01	808.56
449.37	801.26
449.74	794.67
450.11	786.11
450.48	776.63
450.85	767.01
451.22	758.65
451.59	750.52
451.96	743.32
452.33	732.72
452.70	723.22
453.07	711.68
453.43	700.25
453.80	689.08
454.17	678.43
454.54	668.44
454.91	657.16
455.28	646.44
455.65	636.28
456.02	625.62
456.38	617.03
456.75	605.93
457.12	596.96
457.49	587.91
457.86	579.37
458.23	571.89
458.59	563.58
458.96	555.13
459.33	547.65
459.70	540.03
460.07	534.13
460.43	527.22
460.80	520.75
461.17	515.07
461.54	509.01
461.91	503.31
462.27	497.53
462.64	492.82
463.01	487.44
463.38	482.10
463.74	477.24
464.11	472.95
464.48	469.09
464.85	464.85
465.21	461.60
465.58	458.00
465.95	453.90
466.32	450.62
466.68	447.39
467.05	444.15
467.42	441.00
467.78	437.63
468.15	434.54
468.52	432.29
468.88	429.31
469.25	426.59
469.62	424.43
469.98	422.06
470.35	419.92
470.72	418.00
471.08	416.01
471.45	414.36
471.82	412.51
472.18	410.59
472.55	409.37
472.92	407.82
473.28	406.59
473.65	405.28
474.02	404.07
474.38	403.06
474.75	402.43
475.11	401.54
475.48	401.11
475.85	400.66
476.21	400.39
476.58	400.22
476.94	400.40
477.31	400.40
477.67	400.51
478.04	400.79
478.41	401.19
478.77	401.78
479.14	402.13
479.50	402.86
479.87	403.82
480.23	404.75
480.60	405.67
480.96	406.61
481.33	408.02
481.69	409.40
482.06	410.78
482.42	412.06
482.79	413.62
483.15	415.49
483.52	417.60
483.88	419.63
484.25	421.78
484.61	424.02
484.98	426.40
485.34	429.10
485.71	431.92
486.07	434.90
486.44	437.83
486.80	441.13
487.17	444.51
487.53	448.22
487.90	452.10
488.26	456.33
488.62	460.77
488.99	465.22
489.35	469.93
489.72	474.99
490.08	480.31
490.44	485.73
490.81	491.33
491.17	497.03
491.54	503.12
491.90	509.37
492.26	516.03
492.63	523.02
492.99	530.27
493.36	537.81
493.72	545.76
494.08	553.85
494.45	562.38
494.81	571.27
495.17	580.36
495.54	589.97
495.90	599.98
496.26	610.24
496.63	620.72
496.99	631.56
497.35	642.82
497.72	654.45
498.08	666.50
498.44	678.84
498.80	691.99
499.17	705.46
499.53	719.37
499.89	733.63
500.26	748.00
500.62	762.63
500.98	777.95
501.34	793.46
501.71	809.71
502.07	826.22
502.43	843.16
502.79	860.27
503.16	877.83
503.52	895.67
503.88	913.94
504.24	932.72
504.60	951.70
504.97	971.11
505.33	990.98
505.69	1011.86
506.05	1032.75
506.41	1053.52
506.78	1074.63
507.14	1096.49
507.50	1118.87
507.86	1141.65
508.22	1164.62
508.59	1187.39
508.95	1210.95
509.31	1234.91
509.67	1259.58
510.03	1284.19
510.39	1309.14
510.75	1334.13
511.12	1359.20
511.48	1384.30
511.84	1409.36
512.20	1434.91
512.56	1460.96
512.92	1486.74
513.28	1512.26
513.64	1538.14
514.00	1564.12
514.37	1590.26
514.73	1616.16
515.09	1641.51
515.45	1667.20
515.81	1692.87
516.17	1718.63
516.53	1743.78
516.89	1768.89
517.25	1793.97
517.61	1818.85
517.97	1843.89
518.33	1868.56
518.69	1893.15
519.05	1917.89
519.41	1942.53
519.77	1967.09
520.13	1991.35
520.49	2015.57
520.85	2039.64
521.21	2063.62
521.57	2087.81
521.93	2110.91
522.29	2134.48
522.65	2157.61
523.01	2180.44
523.37	2202.54
523.73	2225.04
524.09	2247.63
524.45	2270.31
524.81	2292.23
525.17	2313.91
525.53	2334.91
525.89	2356.16
526.25	2376.96
526.61	2396.68
526.97	2416.62
527.33	2436.14
527.68	2454.78
528.04	2472.77
528.40	2489.83
528.76	2507.41
529.12	2523.72
529.48	2540.50
529.84	2556.02
530.20	2572.66
530.56	2588.26
530.91	2603.72
531.27	2618.13
531.63	2631.50
531.99	2644.55
532.35	2656.05
532.71	2667.59
533.07	2679.51
533.42	2689.85
533.78	2700.90
534.14	2712.30
534.50	2722.26
534.86	2732.36
535.21	2740.52
535.57	2748.71
535.93	2757.25
536.29	2764.53
536.65	2772.20
537.00	2777.70
537.36	2783.46
537.72	2787.48
538.08	2791.23
538.44	2794.05
538.79	2797.28
539.15	2799.97
539.51	2802.03
539.87	2804.72
540.22	2805.38
540.58	2806.38
540.94	2807.09
541.29	2806.30
541.65	2804.00
542.01	2801.80
542.37	2798.53
542.72	2796.86
543.08	2793.98
543.44	2791.01
543.79	2786.27
544.15	2781.39
544.51	2777.35
544.87	2771.42
545.22	2764.88
545.58	2758.49
545.94	2752.89
546.29	2745.70
546.65	2737.74
547.01	2729.91
547.36	2721.72
547.72	2713.45
548.07	2704.00
548.43	2694.27
548.79	2683.54
549.14	2673.74
549.50	2663.82
549.86	2653.25
550.21	2640.86
550.57	2629.77
550.92	2616.80
551.28	2604.47
551.64	2592.39
551.99	2580.39
552.35	2568.58
552.70	2556.55
553.06	2544.87
553.41	2532.13
553.77	2518.89
554.13	2505.90
554.48	2492.15
554.84	2477.77
555.19	2464.38
555.55	2450.27
555.90	2436.33
556.26	2423.32
556.61	2409.55
556.97	2394.75
557.32	2380.35
557.68	2366.30
558.03	2351.58
558.39	2337.76
558.74	2324.25
559.10	2308.52
559.45	2293.24
559.81	2278.72
560.16	2263.80
560.52	2248.59
560.87	2234.13
561.23	2219.24
561.58	2204.74
561.94	2189.52
562.29	2174.44
562.64	2159.37
563.00	2144.28
563.35	2129.86
563.71	2115.22
564.06	2100.12
564.42	2085.58
564.77	2071.10
565.12	2057.01
565.48	2042.85
565.83	2028.25
566.19	2013.80
566.54	1999.93
566.89	1984.87
567.25	1969.24
567.60	1954.85
567.96	1939.90
568.31	1924.37
568.66	1909.66
569.02	1894.98
569.37	1880.38
569.72	1866.16
570.08	1851.65
570.43	1837.21
570.78	1821.90
571.14	1806.54
571.49	1791.65
571.84	1777.57
572.20	1762.23
572.55	1747.07
572.90	1731.40
573.26	1715.82
573.61	1699.93
573.96	1684.62
574.31	1670.01
574.67	1655.84
575.02	1640.89
575.37	1625.64
575.72	1610.31
576.08	1595.21
576.43	1580.27
576.78	1565.37
577.13	1550.54
577.49	1535.83
577.84	1520.99
578.19	1506.37
578.54	1491.80
578.90	1477.15
579.25	1461.91
579.60	1447.87
579.95	1433.69
580.30	1419.76
580.66	1405.87
581.01	1392.17
581.36	1378.35
581.71	1364.43
582.06	1350.57
582.42	1336.84
582.77	1323.44
583.12	1310.43
583.47	1297.33
583.82	1284.27
584.17	1271.27
584.53	1258.21
584.88	1245.58
585.23	1232.80
585.58	1220.29
585.93	1207.83
586.28	1195.92
586.63	1183.89
586.98	1171.71
587.34	1159.97
587.69	1147.91
588.04	1136.23
588.39	1124.69
588.74	1113.04
589.09	1101.78
589.44	1090.05
589.79	1078.87
590.14	1067.88
590.49	1056.87
590.84	1046.21
591.19	1035.61
591.54	1024.97
591.89	1014.20
592.25	1003.41
592.60	992.61
592.95	982.03
593.30	971.51
593.65	960.90
594.00	950.64
594.35	941.03
594.70	930.89
595.05	921.53
595.40	911.97
595.75	902.23
596.10	893.00
596.45	883.61
596.80	874.61
597.15	865.56
597.50	856.55
597.85	847.92
598.19	839.17
598.54	830.48
598.89	821.98
599.24	813.85
599.59	805.77
599.94	798.20
600.29	790.46
600.64	782.80
600.99	775.11
601.34	767.67
601.69	759.64
602.04	752.23
602.39	744.90
602.74	737.82
603.08	730.81
603.43	723.87
603.78	717.00
604.13	710.28
604.48	703.58
604.83	697.14
605.18	690.67
605.53	684.41
605.87	677.97
606.22	671.79
606.57	665.59
606.92	659.32
607.27	653.16
607.62	647.36
607.96	641.66
608.31	636.25
608.66	630.69
609.01	625.31
609.36	620.17
609.70	614.94
610.05	609.63
610.40	604.49
610.75	599.24
611.10	594.34
611.44	589.39
611.79	584.55
612.14	579.68
612.49	574.78
612.83	570.04
613.18	565.61
613.53	561.15
613.88	556.73
614.22	552.54
614.57	548.22
614.92	543.93
615.27	539.74
615.61	535.57
615.96	531.55
616.31	527.61
616.65	523.61
617.00	519.70
617.35	515.93
617.70	512.23
618.04	508.69
618.39	505.08
618.74	501.60
619.08	498.07
619.43	494.61
619.78	491.27
620.12	487.97
620.47	484.79
620.82	481.64
621.16	478.59
621.51	475.62
621.85	472.72
622.20	469.87
622.55	467.03
622.89	464.25
623.24	461.57
623.59	458.93
623.93	456.34
624.28	453.86
624.62	451.56
624.97	449.25
625.32	446.79
625.66	444.34
626.01	441.93
626.35	439.70
626.70	437.41
627.04	435.29
627.39	433.11
627.73	430.95
628.08	428.88
628.43	426.83
628.77	424.79
629.12	422.89
629.46	420.95
629.81	419.11
630.15	417.21
630.50	415.33
630.84	413.53
631.19	411.79
631.53	410.08
631.88	408.21
632.22	406.44
632.57	405.00
632.91	403.54
633.26	402.14
633.60	400.69
633.95	399.32
634.29	397.84
634.64	396.42
634.98	394.87
635.32	393.47
635.67	392.16
636.01	390.85
636.36	389.53
636.70	388.36
637.05	387.07
637.39	385.91
637.73	384.77
638.08	383.62
638.42	382.50
638.77	381.28
639.11	380.04
639.45	378.85
639.80	377.63
640.14	376.46
640.49	375.26
640.83	374.10
641.17	372.97
641.52	371.83
641.86	370.78
642.20	369.90
642.55	368.82
642.89	367.79
643.23	366.75
643.58	365.85
643.92	364.78
644.26	363.79
644.61	362.86
644.95	361.89
645.29	360.91
645.64	359.91
645.98	358.96
646.32	358.11
646.66	357.19
647.01	356.26
647.35	355.40
647.69	354.53
648.04	353.70
648.38	352.82
648.72	352.03
649.06	351.24
649.41	350.39
649.75	349.60
650.09	348.83
650.43	348.06
650.78	347.24
651.12	346.48
651.46	345.73
651.80	344.99
652.14	344.26
652.49	343.56
652.83	342.82
653.17	342.12
653.51	341.43
653.85	340.81
654.20	340.18
654.54	339.47
654.88	338.79
655.22	338.15
655.56	337.46
655.90	336.76
656.25	336.06
656.59	335.40
656.93	334.79
657.27	334.22
657.61	333.57
657.95	332.98
658.29	332.36
658.64	331.82
658.98	331.21
659.32	330.60
659.66	330.01
660.00	329.45
660.34	328.89
660.68	328.28
661.02	327.65
661.36	327.03
661.70	326.44
662.05	325.89
662.39	325.35
662.73	324.88
663.07	324.44
663.41	323.93
663.75	323.37
664.09	322.83
664.43	322.21
664.77	321.70
665.11	321.09
665.45	320.54
665.79	319.99
666.13	319.42
666.47	318.88
666.81	318.31
667.15	317.72
667.49	317.21
667.83	316.77
668.17	316.30
668.51	315.86
668.85	315.44
669.19	315.07
669.53	314.55
669.87	314.05
670.21	313.56
670.55	313.10
670.89	312.76
671.23	312.32
671.57	311.90
671.91	311.51
672.25	311.15
672.58	310.80
672.92	310.33
673.26	309.95
673.60	309.54
673.94	309.16
674.28	308.80
674.62	308.43
674.96	307.99
675.30	307.59
675.64	307.15
675.97	306.71
676.31	306.20
676.65	305.77
676.99	305.40
677.33	304.93
677.67	304.50
678.01	303.96
678.34	303.51
678.68	303.09
679.02	302.61
679.36	302.16
679.70	301.68
680.04	301.27
680.37	300.83
680.71	300.40
681.05	300.00
681.39	299.56
681.73	299.07
682.06	298.60
682.40	298.16
682.74	297.79
683.08	297.43
683.42	296.98
683.75	296.57
684.09	296.06
684.43	295.61
684.77	295.16
685.10	294.76
685.44	294.39
685.78	293.97
686.12	293.56
686.45	293.13
686.79	292.68
687.13	292.25
687.46	291.79
687.80	291.36
688.14	290.86
688.48	290.41
688.81	289.98
689.15	289.64
689.49	289.18
689.82	288.72
690.16	288.20
690.50	287.77
690.83	287.34
691.17	286.88
691.51	286.47
691.84	286.08
692.18	285.65
692.52	285.17
692.85	284.74
693.19	284.39
693.52	283.98
693.86	283.59
694.20	283.17
694.53	282.78
694.87	282.33
695.21	281.90
695.54	281.50
695.88	281.05
696.21	280.53
696.55	280.11
696.88	279.67
697.22	279.24
697.56	278.84
697.89	278.38
698.23	277.95
698.56	277.50
698.90	277.09
699.23	276.64
699.57	276.23
699.90	275.77
700.24	275.26
700.58	274.85
700.91	274.48
701.25	274.22
701.58	273.90
701.92	273.57
702.25	273.22
702.59	272.82
702.92	272.45
703.26	272.07
703.59	271.67
703.93	271.44
704.26	271.10
704.60	270.70
704.93	270.33
705.26	269.93
705.60	269.59
705.93	269.16
706.27	268.84
706.60	268.51
706.94	268.21
707.27	267.82
707.61	267.44
707.94	267.04
708.27	266.51
708.61	266.06
708.94	265.66
709.28	265.30
709.61	264.92
709.94	264.59
710.28	264.27
710.61	263.98
710.95	263.50
711.28	263.28
711.61	262.94
711.95	262.66
712.28	262.32
712.61	261.97
712.95	261.73
713.28	261.48
713.61	261.11
713.95	260.76
714.28	260.48
714.61	260.15
714.95	259.83
715.28	259.52
715.61	259.21
715.95	258.92
716.28	258.61
716.61	258.34
716.95	258.01
717.28	257.68
717.61	257.34
717.94	257.04
718.28	256.63
718.61	256.35
718.94	256.03
719.27	255.76
719.61	255.51
719.94	255.21
720.27	254.85
720.60	254.58
720.94	254.31
721.27	254.05
721.60	253.82
721.93	253.55
722.27	253.36
722.60	253.14
722.93	252.86
723.26	252.62
723.59	252.34
723.93	252.14
724.26	251.93
724.59	251.70
724.92	251.48
725.25	251.30
725.59	251.08
725.92	250.89
726.25	250.68
726.58	250.45
726.91	250.22
727.24	250.02
727.57	249.81
727.91	249.56
728.24	249.38
728.57	249.15
728.90	248.98
729.23	248.70
729.56	248.59
729.89	248.39
730.22	248.18
730.55	247.98
730.89	247.77
731.22	247.55
731.55	247.34
731.88	247.14
732.21	246.91
732.54	246.70
732.87	246.51
733.20	246.32
733.53	246.13
733.86	245.95
734.19	245.75
734.52	245.60
734.85	245.56
735.18	245.35
735.51	245.24
735.84	245.08
736.17	244.97
736.50	244.69
736.83	244.73
737.16	244.57
737.49	244.41
737.82	244.23
738.15	244.10
738.48	243.94
738.81	243.77
739.14	243.59
739.47	243.44
739.80	243.26
740.13	243.13
740.46	242.96
740.79	242.79
741.12	242.63
741.45	242.45
741.78	242.19
742.11	242.09
742.44	241.89
742.77	241.75
743.10	241.56
743.43	241.42
743.75	241.09
744.08	241.22
744.41	241.08
744.74	240.94
745.07	240.76
745.40	240.67
745.73	240.61
746.06	240.48
746.39	240.37
746.71	240.24
747.04	240.10
747.37	239.97
747.70	239.85
748.03	239.73
748.36	239.63
748.68	239.51
749.01	239.34
749.34	239.23
749.67	239.11
750.00	239.03
750.33	239.05
750.65	238.94
750.98	238.56
751.31	238.46
751.64	238.36
751.97	238.34
752.29	238.22
752.62	238.02
752.95	237.89
753.28	237.74
753.60	237.62
753.93	237.55
754.26	237.46
754.59	237.30
754.91	237.18
755.24	237.05
755.57	236.95
755.90	236.84
756.22	236.70
756.55	236.56
756.88	236.42
757.20	236.20
757.53	236.06
757.86	235.95
758.19	235.86
758.51	235.76
758.84	235.58
759.17	235.46
759.49	235.39
759.82	235.38
760.15	235.31
760.47	235.22
760.80	235.09
761.13	235.02
761.45	234.94
761.78	234.86
762.11	234.79
762.43	234.69
762.76	234.60
763.08	234.54
763.41	234.48
763.74	234.39
764.06	234.31
764.39	234.23
764.71	234.15
765.04	234.05
765.37	233.96
765.69	233.88
766.02	233.81
766.34	233.72
766.67	233.60
767.00	233.55
767.32	233.58
767.65	233.63
767.97	233.53
768.30	233.49
768.62	233.43
768.95	233.34
769.27	233.27
769.60	233.23
769.92	233.15
770.25	233.06
770.57	232.98
770.90	232.92
771.22	232.85
771.55	232.79
771.87	232.76
772.20	232.69
772.52	232.79
772.85	232.95
773.17	232.90
773.50	232.83
773.82	232.75
774.15	232.61
774.47	232.44
774.80	232.38
775.12	232.32
775.45	232.26
775.77	232.24
776.09	232.21
776.42	232.17
776.74	232.17
777.07	232.13
777.39	232.10
777.72	232.04
778.04	232.02
778.36	231.96
778.69	231.92
779.01	231.90
779.33	231.71
779.66	231.46
779.98	231.40
780.31	231.36
780.63	231.40
780.95	231.40
781.28	231.36
781.60	231.31
781.92	231.27
782.25	231.24
782.57	231.19
782.89	231.14
783.22	231.09
783.54	231.02
783.86	231.01
784.19	230.97
784.51	231.00
784.83	230.95
785.16	230.91
785.48	230.88
785.80	230.86
786.12	230.84
786.45	230.82
786.77	230.81
787.09	230.78
787.42	230.68
787.74	230.64
788.06	230.61
788.38	230.59
788.71	230.54
789.03	230.52
789.35	230.52
789.67	230.46
789.99	230.45
790.32	230.41
790.64	230.40
790.96	230.54
791.28	230.45
791.61	230.42
791.93	230.41
792.25	230.37
792.57	230.47
792.89	230.42
793.21	230.41
793.54	230.36
793.86	230.32
794.18	230.31
794.50	230.26
794.82	230.24
795.14	230.23
795.47	230.25
795.79	230.23
796.11	230.17
796.43	230.15
796.75	230.12
797.07	230.11
797.39	230.07
797.71	229.89
798.04	229.89
798.36	229.88
798.68	229.85
799.00	229.84
799.32	229.73
799.64	229.74
799.96	229.71
800.28	229.72
800.60	229.70
800.92	229.69
801.24	229.67
801.56	229.67
801.89	229.64
802.21	229.64
802.53	229.58
802.85	229.61
803.17	229.67
803.49	229.62
803.81	229.59
804.13	229.56
804.45	229.53
804.77	229.52
805.09	229.50
805.41	229.47
805.73	229.42
806.05	229.35
806.37	229.31
806.69	229.27
807.01	229.25
807.33	229.25
807.65	229.18
807.97	229.24
808.28	229.21
808.60	229.18
808.92	229.13
809.24	229.23
809.56	229.17
809.88	229.09
810.20	229.08
810.52	229.12
810.84	229.07
811.16	229.03
811.48	229.00
811.80	229.05
812.12	229.03
812.43	229.06
812.75	229.06
813.07	229.03
813.39	229.03
813.71	229.00
814.03	228.96
814.35	228.96
814.67	228.88
814.98	228.85
815.30	228.84
815.62	228.80
815.94	228.67
816.26	228.69
816.58	228.65
816.89	228.65
817.21	228.59
817.53	228.60
817.85	228.60
818.17	228.59
818.48	228.50
818.80	228.54
819.12	228.51
819.44	228.46
819.76	228.43
820.07	228.41
820.39	228.40
820.71	228.41
821.03	228.39
821.34	228.36
821.66	228.37
821.98	228.38
822.30	228.38
822.61	228.49
822.93	228.45
823.25	228.44
823.57	228.42
823.88	228.44
824.20	228.43
824.52	228.46
824.83	228.45
825.15	228.42
825.47	228.38
825.79	228.37
826.10	228.37
826.42	228.35
826.74	228.35
827.05	228.33
827.37	228.33
827.69	228.32
828.00	228.32
828.32	228.31
828.64	228.28
828.95	228.36
829.27	228.29
829.58	228.28
829.90	228.31
830.22	228.31
830.53	228.27
830.85	228.25
831.17	228.19
831.48	228.18
831.80	228.19
832.11	228.18
832.43	228.16
832.75	228.16
833.06	228.26
833.38	228.21
833.69	228.20
834.01	228.21
834.32	228.20
834.64	228.17
834.96	228.16
835.27	228.15
835.59	228.08
835.90	228.05
836.22	228.05
836.53	228.00
836.85	227.98
837.16	228.15
837.48	228.15
837.79	228.21
838.11	228.21
838.42	228.21
838.74	228.22
839.05	228.20
839.37	228.19
839.68	228.09
840.00	228.08
840.31	228.11
840.63	228.08
840.94	228.05
841.26	228.04
841.57	228.02
841.88	228.04
842.20	228.01
842.51	227.98
842.83	227.97
843.14	228.12
843.46	228.10
843.77	227.99
844.08	227.97
844.40	227.90
844.71	227.88
845.03	227.86
845.34	227.84
845.65	227.83
845.97	227.82
846.28	227.83
846.60	227.82
846.91	227.79
847.22	227.77
847.54	227.81
847.85	227.83
848.16	227.81
848.48	227.76
848.79	227.83
849.10	227.84
849.42	227.85
849.73	227.68
850.04	227.68
850.36	227.60
850.67	227.64
850.98	227.64
851.30	227.65
851.61	227.63
851.92	227.64
852.23	227.68
852.55	227.70
852.86	227.69
853.17	227.71
853.49	227.74
853.80	227.78
854.11	227.78
854.42	227.80
854.74	227.78
855.05	227.79
855.36	227.71
855.67	227.71
855.99	227.71
856.30	227.92
856.61	227.91
856.92	227.93
857.23	227.93
857.55	227.90
857.86	227.88
858.17	227.91
858.48	227.88
858.79	227.85
859.11	227.85
859.42	227.84
859.73	227.80
860.04	227.79
860.35	227.73
860.66	227.67
860.98	227.67
861.29	227.69
861.60	227.69
861.91	227.73
862.22	227.71
862.53	227.67
862.84	227.47
863.16	227.51
863.47	227.48
863.78	227.46
864.09	227.47
864.40	227.49
864.71	227.49
865.02	227.51
865.33	227.48
865.64	227.45
865.95	227.47
866.27	227.58
866.58	227.56
866.89	227.60
867.20	227.59
867.51	227.55
867.82	227.54
868.13	227.58
868.44	227.53
868.75	227.56
869.06	227.58
869.37	227.59
869.68	227.55
869.99	227.59
870.30	227.61
870.61	227.62
870.92	227.59
871.23	227.57
871.54	227.60
871.85	227.64
872.16	227.67
872.47	227.64
872.78	227.54
873.09	227.57
873.40	227.54
873.71	227.55
874.02	227.57
874.33	227.54
874.64	227.50
874.95	227.54
875.26	227.49
875.56	227.49
875.87	227.47
876.18	227.46
876.49	227.62
876.80	227.60
877.11	227.56
877.42	227.58
877.73	227.58
878.04	227.55
878.35	227.54
878.66	227.54
878.96	227.54
879.27	227.53
879.58	227.50
879.89	227.50
880.20	227.54
880.51	227.54
880.82	227.54
881.12	227.55
881.43	227.51
881.74	227.50
882.05	227.48
882.36	227.50
882.67	227.51
882.97	227.31
883.28	227.28
883.59	227.27
883.90	227.27
884.21	227.30
884.51	227.29
884.82	227.26
885.13	227.25
885.44	227.25
885.74	227.25
886.05	227.25
886.36	227.26
886.67	227.20
886.98	227.28
887.28	227.31
887.59	227.31
887.90	227.32
888.20	227.32
888.51	227.35
888.82	227.32
889.13	227.33
889.43	227.49
889.74	227.51
890.05	227.50
890.35	227.49
890.66	227.47
890.97	227.46
891.28	227.43
891.58	227.44
891.89	227.44
892.20	227.42
892.50	227.40
892.81	227.38
893.12	227.38
893.42	227.29
893.73	227.29
894.04	227.28
894.34	227.30
894.65	227.30
894.95	227.28
895.26	227.29
895.57	227.36
895.87	227.17
896.18	227.21
896.48	227.22
896.79	227.21
897.10	227.22
897.40	227.22
897.71	227.25
898.01	227.23
898.32	227.26
898.63	227.26
898.93	227.27
899.24	227.28
899.54	227.27
899.85	227.26
900.15	227.25
900.46	227.25
900.76	227.26
901.07	227.25
901.38	227.24
901.68	227.27
901.99	227.18
902.29	227.20
902.60	227.16
902.90	227.15
903.21	227.14
903.51	227.13
903.82	227.17
904.12	227.16
904.43	227.17
904.73	227.15
905.03	227.17
905.34	227.34
905.64	227.32
905.95	227.33
906.25	227.33
906.56	227.32
906.86	227.33
907.17	227.31
907.47	227.33
907.77	227.32
908.08	227.27
908.38	227.29
908.69	227.30
908.99	227.33
909.30	227.35
909.60	227.36
909.90	227.36
910.21	227.30
910.51	227.28
910.81	227.28
911.12	227.29
911.42	227.29
911.73	227.11
912.03	227.13
912.33	227.16
912.64	227.15
912.94	227.14
913.24	227.10
913.55	227.08
913.85	227.06
914.15	227.10
914.46	227.13
914.76	227.10
915.06	227.09
915.37	227.06
915.67	227.05
915.97	227.05
916.27	227.03
916.58	227.04
916.88	227.04
917.18	227.03
917.49	227.15
917.79	227.13
918.09	227.15
918.39	227.19
918.70	227.17
919.00	227.18
919.30	227.26
919.60	227.25
919.91	227.24
920.21	227.24
920.51	227.20
920.81	227.19
921.12	227.22
921.42	227.21
921.72	227.22
922.02	227.23
922.32	227.25
922.63	227.26
922.93	227.35
923.23	227.36
923.53	227.34
923.83	227.22
924.13	227.24
924.44	227.24
924.74	227.25
925.04	227.30
925.34	227.29
925.64	227.22
925.94	227.23
926.24	227.34
926.55	227.34
926.85	227.36
927.15	227.35
927.45	227.35
927.75	227.36
928.05	227.34
928.35	227.33
928.65	227.34
928.95	227.35
929.26	227.27
929.56	227.29
929.86	227.32
930.16	227.31
930.46	227.29
930.76	227.30
931.06	227.22
931.36	227.17
931.66	227.21
931.96	227.22
932.26	227.22
932.56	227.14
932.86	227.15
933.16	227.14
933.46	227.12
933.76	227.10
934.06	227.11
934.36	227.17
934.66	227.16
934.96	227.14
935.26	227.15
935.56	227.17
935.86	227.13
936.16	227.10
936.46	227.07
936.76	227.06
937.06	227.03
937.36	227.04
937.66	227.04
937.96	227.02
938.26	226.99
938.56	226.98
938.86	226.99
939.16	227.03
939.46	227.06
939.76	227.07
940.06	227.07
940.35	227.04
940.65	226.95
940.95	226.97
941.25	226.92
941.55	226.90
941.85	226.88
942.15	226.92
942.45	226.97
942.75	226.98
943.04	226.99
943.34	227.03
943.64	227.02
943.94	227.00
944.24	227.00
944.54	227.02
944.84	227.02
945.13	226.99
945.43	226.95
945.73	226.93
946.03	226.93
946.33	226.91
946.62	226.91
946.92	226.92
947.22	226.92
947.52	226.95
947.82	226.97
948.11	226.96
948.41	226.92
948.71	226.87
949.01	226.88
949.31	226.87
949.60	226.85
949.90	226.88
950.20	226.87
950.50	226.87
950.79	226.86
951.09	226.88
951.39	226.88
951.69	226.86
951.98	226.90
952.28	226.91
952.58	226.91
952.87	226.92
953.17	226.95
953.47	226.93
953.76	226.93
954.06	226.90
954.36	226.88
954.66	226.88
954.95	226.93
955.25	226.96
955.55	226.98
955.84	226.94
956.14	226.95
956.44	226.98
956.73	226.95
957.03	226.96
957.32	226.95
957.62	226.94
957.92	226.99
958.21	226.97
958.51	227.18
958.81	227.20
959.10	227.21
959.40	227.24
959.69	227.25
959.99	227.28
960.29	227.28
960.58	227.28
960.88	227.35
961.17	227.32
961.47	227.33
961.76	227.31
962.06	227.33
962.36	227.30
962.65	227.29
962.95	227.31
963.24	227.29
963.54	227.29
963.83	227.31
964.13	227.29
964.42	227.27
964.72	227.11
965.01	227.11
965.31	227.10
965.60	227.05
965.90	227.16
966.19	227.12
966.49	227.13
966.78	227.13
967.08	227.10
967.37	227.12
967.67	227.08
967.96	227.12
968.26	227.12
968.55	227.15
968.85	227.15
969.14	227.15
969.43	227.15
969.73	227.14
970.02	227.13
970.32	227.11
970.61	227.08
970.91	227.03
971.20	227.00
971.49	226.98
971.79	227.00
972.08	226.87
972.38	226.89
972.67	226.88
972.96	226.90
973.26	226.86
973.55	226.91
973.85	226.90
974.14	226.89
974.43	226.88
974.73	226.85
975.02	226.82
975.31	226.82
975.61	226.81
975.90	226.79
976.19	226.78
976.49	226.80
976.78	226.82
977.07	226.83
977.37	226.85
977.66	226.88
977.95	226.85
978.24	226.87
978.54	226.91
978.83	226.90
979.12	226.89
979.42	226.89
979.71	226.85
980.00	226.84
980.29	226.84
980.59	226.81
980.88	226.87
981.17	226.87
981.46	226.87
981.76	226.88
982.05	226.93
982.34	226.96
982.63	226.95
982.93	226.93
983.22	226.98
983.51	226.98
983.80	226.99
984.09	227.02
984.39	227.00
984.68	226.97
984.97	226.99
985.26	226.97
985.55	226.99
985.85	226.96
986.14	226.98
986.43	227.01
986.72	227.00
987.01	226.94
987.30	226.95
987.59	226.94
987.89	226.94
988.18	226.88
988.47	226.87
988.76	226.85
989.05	226.85
989.34	226.82
989.63	226.87
989.92	226.85
990.22	226.83
990.51	226.82
990.80	226.80
991.09	226.82
991.38	226.84
991.67	226.82
991.96	226.81
992.25	226.81
992.54	226.78
992.83	226.79
993.12	226.78
993.41	226.82
993.70	226.89
993.99	226.93
994.28	226.95
994.58	226.98
994.87	226.96
995.16	226.98
995.45	226.96
995.74	226.90
996.03	226.94
996.32	226.96
996.61	227.00
996.90	227.01
997.19	227.00
997.48	227.00
997.77	226.99
998.06	227.01
998.34	227.00
998.63	227.01
998.92	227.01
999.21	227.04
999.50	227.04
999.79	226.98
1000.08	226.96
1000.37	226.96
1000.66	226.95
1000.95	227.00
1001.24	227.00
1001.53	227.03
1001.82	227.03
1002.11	226.98
1002.40	227.00
1002.68	227.04
1002.97	227.15
1003.26	227.13
1003.55	227.10
1003.84	227.11
1004.13	227.17
1004.42	227.16
1004.71	227.16
1004.99	227.16
1005.28	227.21
1005.57	227.19
1005.86	227.17
1006.15	227.16
1006.44	227.13
1006.72	227.15
1007.01	227.11
1007.30	227.12
1007.59	227.09
1007.88	227.08
1008.17	227.10
1008.45	227.05
1008.74	226.96
1009.03	226.88
1009.32	226.89
1009.60	226.89
1009.89	226.87
1010.18	226.79
1010.47	226.78
1010.76	226.78
1011.04	226.77
1011.33	226.74
1011.62	226.75
1011.91	226.76
1012.19	226.77
1012.48	226.78
1012.77	226.78
1013.05	226.84
1013.34	226.83
1013.63	226.82
1013.92	226.84
1014.20	226.82
1014.49	226.83
1014.78	226.86
1015.06	226.80
1015.35	226.80
1015.64	226.83
1015.92	226.86
1016.21	226.88
1016.50	226.88
1016.78	226.89
1017.07	226.89
1017.36	226.86
1017.64	226.84
1017.93	226.85
1018.22	226.84
1018.50	226.82
1018.79	226.81
1019.08	226.75
1019.36	226.76
1019.65	226.75
1019.93	226.79
1020.22	226.82
1020.51	226.91
1020.79	226.88
1021.08	226.58
1021.36	226.51
1021.65	226.76
1021.94	226.82
1022.22	226.82
1022.51	226.59
1022.79	227.62
1023.08	227.17
1023.36	228.87
1023.65	226.22
>>>>>End Processed Spectral Data<<<<<
