SpectraSuite Data File
++++++++++++++++++++++++++++++++++++
Date: Tue Oct 06 15:44:41 EDT 2015
User: lab3
Dark Spectrum Present: No
Reference Spectrum Present: No
Number of Sampled Component Spectra: 1
Spectrometers: USB2E7196
Integration Time (usec): 66000 (USB2E7196)
Spectra Averaged: 1000 (USB2E7196)
Boxcar Smoothing: 10 (USB2E7196)
Correct for Electrical Dark: No (USB2E7196)
Strobe/Lamp Enabled: No (USB2E7196)
Correct for Detector Non-linearity: No (USB2E7196)
Correct for Stray Light: No (USB2E7196)
Number of Pixels in Processed Spectrum: 2048
>>>>>Begin Processed Spectral Data<<<<<
339.09	0.00
339.48	215.28
339.86	216.98
340.24	218.51
340.63	219.73
341.01	223.62
341.39	222.56
341.78	223.75
342.16	225.51
342.54	225.41
342.93	213.98
343.31	224.78
343.69	225.34
344.07	225.80
344.46	226.25
344.84	226.66
345.22	226.87
345.60	227.15
345.99	227.37
346.37	227.50
346.75	227.64
347.13	227.73
347.52	227.83
347.90	227.96
348.28	228.02
348.66	228.12
349.05	228.12
349.43	228.19
349.81	228.27
350.19	228.33
350.57	228.41
350.96	228.52
351.34	228.62
351.72	228.73
352.10	228.86
352.48	228.94
352.87	228.99
353.25	229.06
353.63	229.12
354.01	229.18
354.39	229.26
354.77	229.34
355.15	229.46
355.54	229.50
355.92	229.50
356.30	229.57
356.68	229.74
357.06	229.82
357.44	229.86
357.82	229.91
358.20	230.13
358.58	230.19
358.97	230.27
359.35	230.38
359.73	230.47
360.11	230.52
360.49	230.58
360.87	230.63
361.25	230.71
361.63	230.82
362.01	230.88
362.39	230.91
362.77	230.95
363.15	230.97
363.53	231.01
363.91	231.05
364.29	231.09
364.67	230.94
365.05	230.97
365.43	231.01
365.81	231.06
366.19	231.01
366.57	231.09
366.95	231.09
367.33	231.04
367.71	231.03
368.09	231.06
368.47	231.05
368.85	231.05
369.23	231.06
369.61	230.98
369.99	231.01
370.37	231.01
370.75	231.13
371.13	231.09
371.51	231.05
371.89	231.04
372.27	231.02
372.65	231.00
373.03	230.95
373.41	230.90
373.78	230.86
374.16	230.72
374.54	230.62
374.92	230.56
375.30	230.52
375.68	230.43
376.06	230.39
376.44	230.32
376.82	230.28
377.19	230.24
377.57	230.19
377.95	230.08
378.33	230.01
378.71	229.81
379.09	229.77
379.47	229.73
379.84	229.66
380.22	229.58
380.60	229.50
380.98	229.45
381.36	229.40
381.73	229.33
382.11	229.31
382.49	229.28
382.87	229.21
383.25	229.17
383.62	229.35
384.00	229.27
384.38	229.25
384.76	229.25
385.13	229.26
385.51	229.21
385.89	229.15
386.27	229.13
386.64	229.12
387.02	229.07
387.40	229.03
387.78	229.01
388.15	229.00
388.53	228.97
388.91	228.95
389.29	228.92
389.66	228.93
390.04	228.89
390.42	228.89
390.79	228.88
391.17	228.87
391.55	228.66
391.92	228.65
392.30	228.67
392.68	228.63
393.05	228.60
393.43	228.61
393.81	228.64
394.18	228.63
394.56	228.64
394.94	228.69
395.31	228.69
395.69	228.77
396.06	228.81
396.44	228.86
396.82	228.87
397.19	229.00
397.57	229.03
397.95	229.11
398.32	229.09
398.70	229.18
399.07	229.28
399.45	229.34
399.82	229.42
400.20	229.47
400.58	229.56
400.95	229.59
401.33	229.73
401.70	229.96
402.08	230.10
402.45	230.23
402.83	230.40
403.20	230.57
403.58	230.71
403.95	230.91
404.33	231.14
404.71	231.35
405.08	231.65
405.46	231.91
405.83	232.18
406.21	232.47
406.58	232.79
406.96	233.11
407.33	233.48
407.70	233.90
408.08	234.47
408.45	234.98
408.83	235.52
409.20	236.01
409.58	236.47
409.95	237.09
410.33	237.78
410.70	238.41
411.08	239.16
411.45	239.97
411.82	240.79
412.20	241.73
412.57	242.84
412.95	243.73
413.32	244.86
413.69	246.04
414.07	247.30
414.44	248.67
414.82	250.06
415.19	251.71
415.56	253.39
415.94	255.13
416.31	257.09
416.68	259.06
417.06	261.33
417.43	263.46
417.81	265.90
418.18	268.40
418.55	271.13
418.93	273.97
419.30	276.95
419.67	280.08
420.04	283.33
420.42	286.71
420.79	290.61
421.16	294.57
421.54	298.55
421.91	302.74
422.28	307.08
422.66	311.76
423.03	316.20
423.40	320.85
423.77	325.85
424.15	330.94
424.52	336.22
424.89	341.95
425.26	347.62
425.64	352.91
426.01	358.83
426.38	364.87
426.75	371.09
427.13	377.46
427.50	384.13
427.87	391.05
428.24	398.03
428.61	404.72
428.99	411.92
429.36	419.84
429.73	427.37
430.10	434.92
430.47	442.61
430.85	450.59
431.22	459.09
431.59	467.81
431.96	476.33
432.33	485.79
432.70	494.79
433.08	505.47
433.45	515.51
433.82	525.44
434.19	536.57
434.56	547.51
434.93	558.14
435.30	568.67
435.68	580.63
436.05	592.29
436.42	603.96
436.79	614.66
437.16	626.25
437.53	638.68
437.90	651.08
438.27	663.30
438.64	676.45
439.01	688.40
439.38	699.36
439.75	709.96
440.13	722.01
440.50	733.50
440.87	742.69
441.24	752.78
441.61	763.82
441.98	771.96
442.35	781.68
442.72	791.52
443.09	800.89
443.46	807.00
443.83	811.68
444.20	815.55
444.57	821.16
444.94	824.47
445.31	827.88
445.68	830.83
446.05	833.06
446.42	832.79
446.79	832.24
447.16	831.81
447.53	831.48
447.90	827.96
448.27	824.55
448.64	819.17
449.01	815.49
449.37	807.85
449.74	800.91
450.11	791.92
450.48	782.07
450.85	772.22
451.22	763.69
451.59	755.31
451.96	747.71
452.33	736.71
452.70	726.97
453.07	715.12
453.43	703.33
453.80	691.77
454.17	680.73
454.54	670.54
454.91	659.03
455.28	648.13
455.65	637.86
456.02	627.04
456.38	618.31
456.75	607.16
457.12	598.13
457.49	589.06
457.86	580.49
458.23	572.90
458.59	564.54
458.96	556.00
459.33	548.46
459.70	540.85
460.07	535.02
460.43	528.11
460.80	521.68
461.17	516.06
461.54	510.01
461.91	504.32
462.27	498.54
462.64	493.83
463.01	488.46
463.38	483.03
463.74	478.13
464.11	473.79
464.48	469.83
464.85	465.60
465.21	462.34
465.58	458.71
465.95	454.63
466.32	451.35
466.68	448.15
467.05	444.90
467.42	441.75
467.78	438.38
468.15	435.30
468.52	433.03
468.88	430.03
469.25	427.31
469.62	425.12
469.98	422.77
470.35	420.65
470.72	418.74
471.08	416.81
471.45	415.18
471.82	413.36
472.18	411.46
472.55	410.23
472.92	408.70
473.28	407.52
473.65	406.23
474.02	405.01
474.38	403.99
474.75	403.39
475.11	402.55
475.48	402.16
475.85	401.73
476.21	401.48
476.58	401.31
476.94	401.49
477.31	401.55
477.67	401.64
478.04	401.95
478.41	402.38
478.77	402.99
479.14	403.37
479.50	404.16
479.87	405.18
480.23	406.14
480.60	407.10
480.96	408.07
481.33	409.52
481.69	410.94
482.06	412.35
482.42	413.65
482.79	415.29
483.15	417.17
483.52	419.32
483.88	421.35
484.25	423.49
484.61	425.74
484.98	428.20
485.34	430.93
485.71	433.80
486.07	436.87
486.44	439.89
486.80	443.32
487.17	446.81
487.53	450.59
487.90	454.57
488.26	458.89
488.62	463.40
488.99	467.93
489.35	472.68
489.72	477.78
490.08	483.17
490.44	488.65
490.81	494.41
491.17	500.28
491.54	506.58
491.90	513.03
492.26	519.93
492.63	527.11
492.99	534.63
493.36	542.32
493.72	550.37
494.08	558.62
494.45	567.26
494.81	576.29
495.17	585.58
495.54	595.38
495.90	605.59
496.26	615.98
496.63	626.66
496.99	637.74
497.35	649.34
497.72	661.21
498.08	673.44
498.44	685.91
498.80	699.11
499.17	712.64
499.53	726.59
499.89	740.94
500.26	755.50
500.62	770.42
500.98	786.11
501.34	801.88
501.71	818.43
502.07	835.25
502.43	852.54
502.79	870.01
503.16	887.98
503.52	906.11
503.88	924.70
504.24	943.72
504.60	962.99
504.97	982.83
505.33	1003.10
505.69	1024.34
506.05	1045.82
506.41	1067.15
506.78	1088.63
507.14	1110.73
507.50	1133.23
507.86	1156.11
508.22	1179.17
508.59	1202.05
508.95	1226.01
509.31	1250.40
509.67	1275.37
510.03	1300.24
510.39	1325.07
510.75	1349.93
511.12	1375.19
511.48	1400.49
511.84	1425.80
512.20	1451.39
512.56	1477.92
512.92	1504.26
513.28	1530.07
513.64	1556.13
514.00	1582.52
514.37	1609.17
514.73	1635.76
515.09	1661.70
515.45	1687.94
515.81	1714.22
516.17	1740.22
516.53	1765.56
516.89	1790.87
517.25	1816.42
517.61	1841.71
517.97	1867.54
518.33	1892.69
518.69	1917.65
519.05	1943.05
519.41	1968.52
519.77	1993.88
520.13	2017.92
520.49	2042.08
520.85	2066.50
521.21	2090.35
521.57	2114.45
521.93	2137.58
522.29	2161.23
522.65	2184.70
523.01	2207.88
523.37	2230.37
523.73	2253.62
524.09	2276.50
524.45	2298.82
524.81	2320.56
525.17	2342.01
525.53	2362.87
525.89	2384.05
526.25	2404.86
526.61	2424.10
526.97	2443.32
527.33	2462.36
527.68	2480.96
528.04	2499.14
528.40	2515.96
528.76	2533.12
529.12	2549.87
529.48	2566.96
529.84	2581.52
530.20	2596.47
530.56	2610.49
530.91	2624.74
531.27	2638.39
531.63	2651.07
531.99	2663.53
532.35	2675.52
532.71	2687.06
533.07	2698.86
533.42	2708.88
533.78	2719.20
534.14	2730.39
534.50	2740.43
534.86	2750.95
535.21	2759.50
535.57	2767.84
535.93	2776.17
536.29	2782.80
536.65	2789.08
537.00	2793.90
537.36	2800.01
537.72	2805.06
538.08	2809.56
538.44	2813.13
538.79	2816.40
539.15	2818.33
539.51	2819.69
539.87	2819.98
540.22	2818.81
540.58	2817.88
540.94	2817.87
541.29	2816.48
541.65	2813.75
542.01	2810.68
542.37	2806.13
542.72	2803.02
543.08	2798.48
543.44	2794.02
543.79	2788.94
544.15	2783.29
544.51	2778.02
544.87	2771.56
545.22	2764.35
545.58	2757.08
545.94	2749.95
546.29	2741.28
546.65	2733.03
547.01	2724.76
547.36	2716.73
547.72	2709.00
548.07	2699.49
548.43	2688.98
548.79	2678.26
549.14	2667.96
549.50	2657.81
549.86	2646.85
550.21	2634.32
550.57	2622.68
550.92	2609.41
551.28	2596.85
551.64	2584.41
551.99	2571.66
552.35	2558.60
552.70	2545.38
553.06	2532.63
553.41	2519.42
553.77	2505.96
554.13	2492.61
554.48	2478.25
554.84	2463.42
555.19	2449.02
555.55	2434.52
555.90	2420.33
556.26	2406.58
556.61	2391.65
556.97	2375.83
557.32	2360.35
557.68	2345.33
558.03	2329.99
558.39	2315.58
558.74	2301.64
559.10	2286.05
559.45	2270.90
559.81	2256.41
560.16	2241.59
560.52	2226.60
560.87	2211.68
561.23	2196.56
561.58	2181.74
561.94	2166.57
562.29	2150.89
562.64	2135.40
563.00	2120.14
563.35	2105.02
563.71	2089.52
564.06	2074.27
564.42	2059.53
564.77	2044.86
565.12	2029.95
565.48	2014.92
565.83	2000.21
566.19	1985.44
566.54	1970.98
566.89	1955.80
567.25	1940.45
567.60	1926.00
567.96	1910.69
568.31	1894.43
568.66	1879.15
569.02	1864.42
569.37	1850.17
569.72	1836.52
570.08	1822.42
570.43	1807.80
570.78	1793.04
571.14	1778.05
571.49	1763.18
571.84	1748.62
572.20	1733.05
572.55	1718.22
572.90	1703.45
573.26	1688.57
573.61	1673.12
573.96	1658.14
574.31	1643.11
574.67	1628.12
575.02	1612.73
575.37	1597.50
575.72	1582.93
576.08	1568.18
576.43	1552.84
576.78	1537.61
577.13	1522.60
577.49	1507.84
577.84	1493.49
578.19	1478.66
578.54	1464.03
578.90	1449.33
579.25	1434.54
579.60	1420.72
579.95	1406.71
580.30	1392.64
580.66	1378.35
581.01	1364.20
581.36	1350.22
581.71	1336.89
582.06	1323.48
582.42	1309.98
582.77	1296.99
583.12	1284.17
583.47	1271.23
583.82	1258.58
584.17	1245.58
584.53	1232.63
584.88	1219.89
585.23	1207.05
585.58	1194.61
585.93	1182.13
586.28	1170.51
586.63	1158.76
586.98	1146.75
587.34	1135.02
587.69	1123.15
588.04	1111.70
588.39	1100.49
588.74	1088.83
589.09	1077.39
589.44	1065.72
589.79	1054.57
590.14	1043.44
590.49	1032.38
590.84	1021.59
591.19	1010.99
591.54	1000.53
591.89	989.66
592.25	979.22
592.60	968.65
592.95	958.22
593.30	948.06
593.65	937.69
594.00	927.56
594.35	918.29
594.70	908.41
595.05	899.15
595.40	889.63
595.75	879.94
596.10	870.90
596.45	861.80
596.80	853.04
597.15	844.34
597.50	835.68
597.85	827.19
598.19	818.68
598.54	810.19
598.89	802.14
599.24	794.51
599.59	786.69
599.94	779.45
600.29	772.23
600.64	764.90
600.99	757.42
601.34	750.18
601.69	742.45
602.04	735.52
602.39	728.50
602.74	721.62
603.08	714.97
603.43	708.28
603.78	701.58
604.13	694.95
604.48	688.36
604.83	681.97
605.18	675.69
605.53	669.54
605.87	663.37
606.22	657.28
606.57	651.16
606.92	644.94
607.27	638.75
607.62	632.79
607.96	627.05
608.31	621.71
608.66	616.29
609.01	611.11
609.36	605.92
609.70	600.65
610.05	595.47
610.40	590.40
610.75	585.37
611.10	580.51
611.44	575.67
611.79	570.90
612.14	566.09
612.49	561.33
612.83	556.82
613.18	552.36
613.53	547.93
613.88	543.62
614.22	539.63
614.57	535.56
614.92	531.54
615.27	527.66
615.61	523.69
615.96	519.78
616.31	515.88
616.65	512.11
617.00	508.44
617.35	504.78
617.70	501.17
618.04	497.64
618.39	494.23
618.74	491.03
619.08	487.80
619.43	484.66
619.78	481.49
620.12	478.32
620.47	475.37
620.82	472.42
621.16	469.51
621.51	466.64
621.85	463.80
622.20	461.03
622.55	458.21
622.89	455.46
623.24	452.86
623.59	450.28
623.93	447.80
624.28	445.47
624.62	443.34
624.97	441.16
625.32	438.92
625.66	436.62
626.01	434.31
626.35	432.14
626.70	429.89
627.04	427.82
627.39	425.72
627.73	423.69
628.08	421.76
628.43	419.81
628.77	417.77
629.12	415.90
629.46	414.08
629.81	412.39
630.15	410.62
630.50	408.86
630.84	407.15
631.19	405.48
631.53	403.86
631.88	402.07
632.22	400.39
632.57	398.97
632.91	397.52
633.26	396.13
633.60	394.75
633.95	393.46
634.29	392.06
634.64	390.71
634.98	389.20
635.32	387.89
635.67	386.67
636.01	385.50
636.36	384.31
636.70	383.25
637.05	382.01
637.39	380.90
637.73	379.78
638.08	378.74
638.42	377.74
638.77	376.59
639.11	375.45
639.45	374.32
639.80	373.13
640.14	372.04
640.49	370.94
640.83	369.82
641.17	368.74
641.52	367.70
641.86	366.68
642.20	365.83
642.55	364.77
642.89	363.75
643.23	362.77
643.58	361.92
643.92	360.90
644.26	359.98
644.61	359.10
644.95	358.18
645.29	357.19
645.64	356.16
645.98	355.25
646.32	354.43
646.66	353.60
647.01	352.77
647.35	352.01
647.69	351.23
648.04	350.52
648.38	349.76
648.72	349.03
649.06	348.27
649.41	347.45
649.75	346.71
650.09	346.01
650.43	345.28
650.78	344.51
651.12	343.77
651.46	343.03
651.80	342.33
652.14	341.67
652.49	341.06
652.83	340.40
653.17	339.70
653.51	339.05
653.85	338.46
654.20	337.82
654.54	337.08
654.88	336.38
655.22	335.75
655.56	335.07
655.90	334.41
656.25	333.80
656.59	333.20
656.93	332.61
657.27	332.08
657.61	331.46
657.95	330.90
658.29	330.33
658.64	329.79
658.98	329.18
659.32	328.59
659.66	328.03
660.00	327.51
660.34	326.97
660.68	326.38
661.02	325.74
661.36	325.17
661.70	324.63
662.05	324.10
662.39	323.56
662.73	323.09
663.07	322.67
663.41	322.18
663.75	321.65
664.09	321.14
664.43	320.50
664.77	320.00
665.11	319.40
665.45	318.88
665.79	318.39
666.13	317.84
666.47	317.31
666.81	316.75
667.15	316.14
667.49	315.70
667.83	315.28
668.17	314.82
668.51	314.38
668.85	313.97
669.19	313.60
669.53	313.07
669.87	312.53
670.21	311.98
670.55	311.46
670.89	311.08
671.23	310.65
671.57	310.28
671.91	309.91
672.25	309.57
672.58	309.24
672.92	308.77
673.26	308.42
673.60	308.02
673.94	307.64
674.28	307.31
674.62	306.91
674.96	306.45
675.30	306.07
675.64	305.62
675.97	305.16
676.31	304.67
676.65	304.24
676.99	303.91
677.33	303.46
677.67	303.08
678.01	302.58
678.34	302.13
678.68	301.73
679.02	301.28
679.36	300.84
679.70	300.36
680.04	299.97
680.37	299.58
680.71	299.19
681.05	298.81
681.39	298.38
681.73	297.93
682.06	297.50
682.40	297.08
682.74	296.72
683.08	296.42
683.42	296.05
683.75	295.70
684.09	295.22
684.43	294.84
684.77	294.41
685.10	294.02
685.44	293.62
685.78	293.20
686.12	292.78
686.45	292.37
686.79	291.92
687.13	291.51
687.46	291.03
687.80	290.62
688.14	290.14
688.48	289.71
688.81	289.29
689.15	288.95
689.49	288.54
689.82	288.10
690.16	287.56
690.50	287.09
690.83	286.65
691.17	286.20
691.51	285.76
691.84	285.39
692.18	284.96
692.52	284.48
692.85	284.04
693.19	283.67
693.52	283.24
693.86	282.83
694.20	282.41
694.53	282.01
694.87	281.55
695.21	281.12
695.54	280.70
695.88	280.26
696.21	279.77
696.55	279.33
696.88	278.90
697.22	278.48
697.56	278.09
697.89	277.63
698.23	277.25
698.56	276.83
698.90	276.40
699.23	275.97
699.57	275.60
699.90	275.19
700.24	274.75
700.58	274.36
700.91	274.02
701.25	273.78
701.58	273.47
701.92	273.14
702.25	272.78
702.59	272.40
702.92	272.02
703.26	271.62
703.59	271.25
703.93	271.00
704.26	270.64
704.60	270.25
704.93	269.89
705.26	269.49
705.60	269.15
705.93	268.76
706.27	268.46
706.60	268.13
706.94	267.84
707.27	267.45
707.61	267.09
707.94	266.69
708.27	266.17
708.61	265.73
708.94	265.34
709.28	264.99
709.61	264.62
709.94	264.30
710.28	263.97
710.61	263.65
710.95	263.18
711.28	262.97
711.61	262.63
711.95	262.34
712.28	262.02
712.61	261.66
712.95	261.43
713.28	261.17
713.61	260.82
713.95	260.45
714.28	260.14
714.61	259.80
714.95	259.49
715.28	259.19
715.61	258.90
715.95	258.62
716.28	258.32
716.61	258.07
716.95	257.76
717.28	257.49
717.61	257.20
717.94	256.93
718.28	256.52
718.61	256.23
718.94	255.93
719.27	255.66
719.61	255.42
719.94	255.11
720.27	254.75
720.60	254.50
720.94	254.24
721.27	254.00
721.60	253.78
721.93	253.53
722.27	253.32
722.60	253.07
722.93	252.80
723.26	252.58
723.59	252.30
723.93	252.09
724.26	251.86
724.59	251.62
724.92	251.40
725.25	251.25
725.59	251.03
725.92	250.84
726.25	250.62
726.58	250.40
726.91	250.18
727.24	249.98
727.57	249.75
727.91	249.51
728.24	249.32
728.57	249.10
728.90	248.91
729.23	248.65
729.56	248.54
729.89	248.36
730.22	248.14
730.55	247.95
730.89	247.76
731.22	247.56
731.55	247.36
731.88	247.17
732.21	246.94
732.54	246.74
732.87	246.56
733.20	246.39
733.53	246.21
733.86	246.05
734.19	245.87
734.52	245.73
734.85	245.69
735.18	245.48
735.51	245.38
735.84	245.24
736.17	245.14
736.50	244.87
736.83	244.90
737.16	244.74
737.49	244.58
737.82	244.39
738.15	244.26
738.48	244.12
738.81	243.94
739.14	243.79
739.47	243.62
739.80	243.46
740.13	243.31
740.46	243.14
740.79	242.97
741.12	242.81
741.45	242.64
741.78	242.38
742.11	242.29
742.44	242.09
742.77	241.95
743.10	241.76
743.43	241.62
743.75	241.30
744.08	241.43
744.41	241.28
744.74	241.14
745.07	240.97
745.40	240.87
745.73	240.82
746.06	240.69
746.39	240.59
746.71	240.45
747.04	240.32
747.37	240.19
747.70	240.09
748.03	239.99
748.36	239.90
748.68	239.78
749.01	239.62
749.34	239.52
749.67	239.40
750.00	239.32
750.33	239.33
750.65	239.24
750.98	238.88
751.31	238.77
751.64	238.69
751.97	238.67
752.29	238.56
752.62	238.36
752.95	238.25
753.28	238.12
753.60	238.01
753.93	237.94
754.26	237.86
754.59	237.70
754.91	237.57
755.24	237.44
755.57	237.34
755.90	237.23
756.22	237.10
756.55	236.97
756.88	236.83
757.20	236.60
757.53	236.45
757.86	236.35
758.19	236.28
758.51	236.17
758.84	235.99
759.17	235.88
759.49	235.80
759.82	235.79
760.15	235.71
760.47	235.61
760.80	235.46
761.13	235.39
761.45	235.32
761.78	235.23
762.11	235.16
762.43	235.05
762.76	234.97
763.08	234.92
763.41	234.84
763.74	234.78
764.06	234.70
764.39	234.64
764.71	234.57
765.04	234.46
765.37	234.36
765.69	234.30
766.02	234.22
766.34	234.12
766.67	233.98
767.00	233.93
767.32	233.97
767.65	234.02
767.97	233.93
768.30	233.87
768.62	233.80
768.95	233.71
769.27	233.65
769.60	233.61
769.92	233.51
770.25	233.41
770.57	233.33
770.90	233.27
771.22	233.19
771.55	233.12
771.87	233.07
772.20	233.01
772.52	233.10
772.85	233.25
773.17	233.21
773.50	233.16
773.82	233.08
774.15	232.94
774.47	232.78
774.80	232.71
775.12	232.66
775.45	232.62
775.77	232.58
776.09	232.54
776.42	232.49
776.74	232.51
777.07	232.46
777.39	232.42
777.72	232.36
778.04	232.34
778.36	232.29
778.69	232.26
779.01	232.23
779.33	232.03
779.66	231.80
779.98	231.74
780.31	231.70
780.63	231.73
780.95	231.73
781.28	231.68
781.60	231.63
781.92	231.60
782.25	231.56
782.57	231.51
782.89	231.47
783.22	231.44
783.54	231.37
783.86	231.36
784.19	231.32
784.51	231.34
784.83	231.29
785.16	231.26
785.48	231.23
785.80	231.21
786.12	231.18
786.45	231.15
786.77	231.14
787.09	231.09
787.42	231.00
787.74	230.98
788.06	230.96
788.38	230.93
788.71	230.89
789.03	230.87
789.35	230.87
789.67	230.83
789.99	230.80
790.32	230.75
790.64	230.74
790.96	230.89
791.28	230.79
791.61	230.76
791.93	230.74
792.25	230.71
792.57	230.81
792.89	230.76
793.21	230.75
793.54	230.71
793.86	230.68
794.18	230.67
794.50	230.61
794.82	230.59
795.14	230.59
795.47	230.60
795.79	230.59
796.11	230.53
796.43	230.50
796.75	230.48
797.07	230.48
797.39	230.44
797.71	230.27
798.04	230.27
798.36	230.26
798.68	230.23
799.00	230.22
799.32	230.11
799.64	230.13
799.96	230.10
800.28	230.11
800.60	230.08
800.92	230.07
801.24	230.05
801.56	230.05
801.89	230.02
802.21	230.00
802.53	229.96
802.85	229.98
803.17	230.05
803.49	229.99
803.81	229.96
804.13	229.94
804.45	229.91
804.77	229.90
805.09	229.89
805.41	229.87
805.73	229.81
806.05	229.75
806.37	229.72
806.69	229.69
807.01	229.67
807.33	229.67
807.65	229.60
807.97	229.66
808.28	229.62
808.60	229.61
808.92	229.57
809.24	229.66
809.56	229.62
809.88	229.54
810.20	229.54
810.52	229.56
810.84	229.53
811.16	229.50
811.48	229.48
811.80	229.52
812.12	229.50
812.43	229.53
812.75	229.54
813.07	229.51
813.39	229.51
813.71	229.47
814.03	229.45
814.35	229.45
814.67	229.36
814.98	229.34
815.30	229.33
815.62	229.28
815.94	229.15
816.26	229.16
816.58	229.12
816.89	229.12
817.21	229.07
817.53	229.07
817.85	229.06
818.17	229.05
818.48	228.97
818.80	228.99
819.12	228.95
819.44	228.92
819.76	228.89
820.07	228.88
820.39	228.87
820.71	228.87
821.03	228.86
821.34	228.84
821.66	228.87
821.98	228.87
822.30	228.86
822.61	228.97
822.93	228.94
823.25	228.93
823.57	228.91
823.88	228.93
824.20	228.92
824.52	228.96
824.83	228.94
825.15	228.91
825.47	228.90
825.79	228.89
826.10	228.88
826.42	228.86
826.74	228.87
827.05	228.87
827.37	228.86
827.69	228.86
828.00	228.86
828.32	228.84
828.64	228.81
828.95	228.92
829.27	228.85
829.58	228.84
829.90	228.86
830.22	228.86
830.53	228.82
830.85	228.79
831.17	228.74
831.48	228.73
831.80	228.75
832.11	228.73
832.43	228.71
832.75	228.70
833.06	228.81
833.38	228.75
833.69	228.73
834.01	228.73
834.32	228.72
834.64	228.69
834.96	228.67
835.27	228.66
835.59	228.58
835.90	228.54
836.22	228.54
836.53	228.50
836.85	228.47
837.16	228.64
837.48	228.63
837.79	228.68
838.11	228.67
838.42	228.66
838.74	228.67
839.05	228.66
839.37	228.65
839.68	228.54
840.00	228.53
840.31	228.56
840.63	228.53
840.94	228.51
841.26	228.50
841.57	228.50
841.88	228.52
842.20	228.49
842.51	228.46
842.83	228.44
843.14	228.60
843.46	228.60
843.77	228.50
844.08	228.49
844.40	228.43
844.71	228.41
845.03	228.38
845.34	228.36
845.65	228.35
845.97	228.35
846.28	228.34
846.60	228.35
846.91	228.31
847.22	228.30
847.54	228.32
847.85	228.33
848.16	228.30
848.48	228.27
848.79	228.33
849.10	228.35
849.42	228.37
849.73	228.18
850.04	228.18
850.36	228.11
850.67	228.14
850.98	228.15
851.30	228.18
851.61	228.18
851.92	228.17
852.23	228.22
852.55	228.22
852.86	228.22
853.17	228.24
853.49	228.27
853.80	228.31
854.11	228.32
854.42	228.34
854.74	228.32
855.05	228.32
855.36	228.24
855.67	228.24
855.99	228.24
856.30	228.46
856.61	228.46
856.92	228.46
857.23	228.46
857.55	228.43
857.86	228.42
858.17	228.45
858.48	228.42
858.79	228.36
859.11	228.37
859.42	228.35
859.73	228.33
860.04	228.32
860.35	228.26
860.66	228.21
860.98	228.20
861.29	228.23
861.60	228.20
861.91	228.24
862.22	228.21
862.53	228.17
862.84	227.94
863.16	227.98
863.47	227.94
863.78	227.92
864.09	227.93
864.40	227.94
864.71	227.93
865.02	227.97
865.33	227.96
865.64	227.93
865.95	227.93
866.27	228.03
866.58	228.02
866.89	228.04
867.20	228.03
867.51	228.00
867.82	227.99
868.13	228.05
868.44	228.01
868.75	228.04
869.06	228.05
869.37	228.09
869.68	228.04
869.99	228.07
870.30	228.08
870.61	228.09
870.92	228.06
871.23	228.04
871.54	228.06
871.85	228.10
872.16	228.12
872.47	228.10
872.78	228.00
873.09	228.02
873.40	228.00
873.71	228.02
874.02	228.02
874.33	228.00
874.64	227.96
874.95	227.99
875.26	227.94
875.56	227.94
875.87	227.93
876.18	227.93
876.49	228.11
876.80	228.08
877.11	228.05
877.42	228.06
877.73	228.07
878.04	228.03
878.35	228.03
878.66	228.03
878.96	228.04
879.27	228.04
879.58	228.03
879.89	228.02
880.20	228.07
880.51	228.07
880.82	228.07
881.12	228.07
881.43	228.04
881.74	228.04
882.05	228.02
882.36	228.02
882.67	228.04
882.97	227.84
883.28	227.83
883.59	227.83
883.90	227.84
884.21	227.86
884.51	227.85
884.82	227.81
885.13	227.81
885.44	227.81
885.74	227.81
886.05	227.79
886.36	227.79
886.67	227.72
886.98	227.80
887.28	227.82
887.59	227.83
887.90	227.82
888.20	227.81
888.51	227.85
888.82	227.82
889.13	227.83
889.43	227.98
889.74	227.97
890.05	227.96
890.35	227.94
890.66	227.90
890.97	227.88
891.28	227.88
891.58	227.89
891.89	227.89
892.20	227.87
892.50	227.86
892.81	227.85
893.12	227.85
893.42	227.76
893.73	227.76
894.04	227.75
894.34	227.77
894.65	227.77
894.95	227.75
895.26	227.75
895.57	227.83
895.87	227.65
896.18	227.69
896.48	227.71
896.79	227.70
897.10	227.74
897.40	227.75
897.71	227.76
898.01	227.74
898.32	227.75
898.63	227.75
898.93	227.76
899.24	227.76
899.54	227.76
899.85	227.76
900.15	227.75
900.46	227.75
900.76	227.76
901.07	227.77
901.38	227.76
901.68	227.78
901.99	227.69
902.29	227.71
902.60	227.70
902.90	227.68
903.21	227.69
903.51	227.67
903.82	227.70
904.12	227.71
904.43	227.72
904.73	227.71
905.03	227.72
905.34	227.89
905.64	227.88
905.95	227.87
906.25	227.87
906.56	227.86
906.86	227.86
907.17	227.85
907.47	227.86
907.77	227.84
908.08	227.80
908.38	227.81
908.69	227.82
908.99	227.84
909.30	227.85
909.60	227.85
909.90	227.85
910.21	227.80
910.51	227.77
910.81	227.76
911.12	227.77
911.42	227.78
911.73	227.59
912.03	227.60
912.33	227.64
912.64	227.62
912.94	227.60
913.24	227.57
913.55	227.55
913.85	227.54
914.15	227.57
914.46	227.60
914.76	227.59
915.06	227.58
915.37	227.55
915.67	227.53
915.97	227.53
916.27	227.51
916.58	227.52
916.88	227.51
917.18	227.51
917.49	227.62
917.79	227.61
918.09	227.64
918.39	227.68
918.70	227.67
919.00	227.68
919.30	227.77
919.60	227.77
919.91	227.75
920.21	227.77
920.51	227.73
920.81	227.73
921.12	227.75
921.42	227.74
921.72	227.75
922.02	227.77
922.32	227.79
922.63	227.80
922.93	227.90
923.23	227.91
923.53	227.89
923.83	227.78
924.13	227.79
924.44	227.80
924.74	227.83
925.04	227.86
925.34	227.85
925.64	227.78
925.94	227.78
926.24	227.89
926.55	227.87
926.85	227.90
927.15	227.88
927.45	227.88
927.75	227.88
928.05	227.89
928.35	227.86
928.65	227.88
928.95	227.89
929.26	227.80
929.56	227.83
929.86	227.86
930.16	227.85
930.46	227.84
930.76	227.85
931.06	227.76
931.36	227.72
931.66	227.74
931.96	227.77
932.26	227.79
932.56	227.71
932.86	227.73
933.16	227.72
933.46	227.71
933.76	227.68
934.06	227.72
934.36	227.77
934.66	227.77
934.96	227.74
935.26	227.75
935.56	227.78
935.86	227.73
936.16	227.70
936.46	227.68
936.76	227.67
937.06	227.63
937.36	227.65
937.66	227.66
937.96	227.65
938.26	227.60
938.56	227.59
938.86	227.58
939.16	227.62
939.46	227.64
939.76	227.65
940.06	227.65
940.35	227.61
940.65	227.52
940.95	227.54
941.25	227.50
941.55	227.47
941.85	227.45
942.15	227.48
942.45	227.53
942.75	227.53
943.04	227.53
943.34	227.57
943.64	227.56
943.94	227.53
944.24	227.54
944.54	227.55
944.84	227.54
945.13	227.52
945.43	227.49
945.73	227.48
946.03	227.47
946.33	227.45
946.62	227.44
946.92	227.44
947.22	227.45
947.52	227.47
947.82	227.50
948.11	227.48
948.41	227.44
948.71	227.40
949.01	227.42
949.31	227.40
949.60	227.39
949.90	227.42
950.20	227.42
950.50	227.41
950.79	227.40
951.09	227.42
951.39	227.42
951.69	227.41
951.98	227.45
952.28	227.45
952.58	227.45
952.87	227.46
953.17	227.48
953.47	227.46
953.76	227.45
954.06	227.43
954.36	227.41
954.66	227.40
954.95	227.45
955.25	227.45
955.55	227.48
955.84	227.45
956.14	227.45
956.44	227.46
956.73	227.43
957.03	227.45
957.32	227.45
957.62	227.44
957.92	227.46
958.21	227.44
958.51	227.64
958.81	227.66
959.10	227.68
959.40	227.71
959.69	227.72
959.99	227.75
960.29	227.74
960.58	227.75
960.88	227.82
961.17	227.80
961.47	227.82
961.76	227.80
962.06	227.83
962.36	227.81
962.65	227.81
962.95	227.83
963.24	227.81
963.54	227.81
963.83	227.82
964.13	227.82
964.42	227.80
964.72	227.64
965.01	227.65
965.31	227.64
965.60	227.60
965.90	227.72
966.19	227.68
966.49	227.70
966.78	227.70
967.08	227.68
967.37	227.68
967.67	227.64
967.96	227.67
968.26	227.66
968.55	227.69
968.85	227.69
969.14	227.68
969.43	227.68
969.73	227.67
970.02	227.66
970.32	227.65
970.61	227.62
970.91	227.57
971.20	227.54
971.49	227.53
971.79	227.56
972.08	227.43
972.38	227.44
972.67	227.42
972.96	227.44
973.26	227.40
973.55	227.44
973.85	227.44
974.14	227.42
974.43	227.42
974.73	227.39
975.02	227.37
975.31	227.38
975.61	227.38
975.90	227.36
976.19	227.33
976.49	227.34
976.78	227.35
977.07	227.36
977.37	227.38
977.66	227.39
977.95	227.35
978.24	227.36
978.54	227.40
978.83	227.38
979.12	227.37
979.42	227.37
979.71	227.34
980.00	227.33
980.29	227.33
980.59	227.30
980.88	227.35
981.17	227.34
981.46	227.34
981.76	227.34
982.05	227.39
982.34	227.42
982.63	227.41
982.93	227.42
983.22	227.46
983.51	227.46
983.80	227.48
984.09	227.51
984.39	227.49
984.68	227.47
984.97	227.48
985.26	227.48
985.55	227.49
985.85	227.46
986.14	227.50
986.43	227.52
986.72	227.52
987.01	227.47
987.30	227.47
987.59	227.46
987.89	227.47
988.18	227.42
988.47	227.40
988.76	227.39
989.05	227.37
989.34	227.34
989.63	227.39
989.92	227.37
990.22	227.33
990.51	227.34
990.80	227.34
991.09	227.35
991.38	227.38
991.67	227.37
991.96	227.34
992.25	227.35
992.54	227.33
992.83	227.32
993.12	227.33
993.41	227.36
993.70	227.44
993.99	227.47
994.28	227.50
994.58	227.53
994.87	227.51
995.16	227.52
995.45	227.50
995.74	227.43
996.03	227.46
996.32	227.50
996.61	227.52
996.90	227.52
997.19	227.51
997.48	227.51
997.77	227.48
998.06	227.50
998.34	227.48
998.63	227.47
998.92	227.49
999.21	227.51
999.50	227.51
999.79	227.44
1000.08	227.43
1000.37	227.43
1000.66	227.40
1000.95	227.46
1001.24	227.47
1001.53	227.49
1001.82	227.50
1002.11	227.46
1002.40	227.47
1002.68	227.50
1002.97	227.64
1003.26	227.61
1003.55	227.59
1003.84	227.61
1004.13	227.66
1004.42	227.65
1004.71	227.65
1004.99	227.64
1005.28	227.68
1005.57	227.67
1005.86	227.65
1006.15	227.64
1006.44	227.62
1006.72	227.63
1007.01	227.58
1007.30	227.59
1007.59	227.57
1007.88	227.57
1008.17	227.58
1008.45	227.55
1008.74	227.46
1009.03	227.37
1009.32	227.38
1009.60	227.37
1009.89	227.35
1010.18	227.29
1010.47	227.28
1010.76	227.28
1011.04	227.28
1011.33	227.26
1011.62	227.27
1011.91	227.29
1012.19	227.30
1012.48	227.31
1012.77	227.31
1013.05	227.38
1013.34	227.37
1013.63	227.36
1013.92	227.36
1014.20	227.36
1014.49	227.37
1014.78	227.39
1015.06	227.34
1015.35	227.33
1015.64	227.37
1015.92	227.40
1016.21	227.41
1016.50	227.41
1016.78	227.43
1017.07	227.44
1017.36	227.41
1017.64	227.39
1017.93	227.40
1018.22	227.38
1018.50	227.37
1018.79	227.36
1019.08	227.29
1019.36	227.30
1019.65	227.28
1019.93	227.32
1020.22	227.34
1020.51	227.43
1020.79	227.42
1021.08	227.09
1021.36	227.33
1021.65	227.08
1021.94	227.25
1022.22	227.23
1022.51	226.98
1022.79	228.01
1023.08	227.55
1023.36	229.53
1023.65	227.08
>>>>>End Processed Spectral Data<<<<<
