SpectraSuite Data File
++++++++++++++++++++++++++++++++++++
Date: Wed Oct 07 02:07:33 EDT 2015
User: lab3
Dark Spectrum Present: No
Reference Spectrum Present: No
Number of Sampled Component Spectra: 1
Spectrometers: USB2E7196
Integration Time (usec): 66000 (USB2E7196)
Spectra Averaged: 10000 (USB2E7196)
Boxcar Smoothing: 10 (USB2E7196)
Correct for Electrical Dark: No (USB2E7196)
Strobe/Lamp Enabled: No (USB2E7196)
Correct for Detector Non-linearity: No (USB2E7196)
Correct for Stray Light: No (USB2E7196)
Number of Pixels in Processed Spectrum: 2048
>>>>>Begin Processed Spectral Data<<<<<
339.09	0.00
339.48	212.39
339.86	213.85
340.24	215.22
340.63	216.63
341.01	220.83
341.39	219.33
341.78	220.92
342.16	222.23
342.54	222.44
342.93	211.06
343.31	221.72
343.69	222.26
344.07	222.73
344.46	223.18
344.84	223.59
345.22	223.79
345.60	224.07
345.99	224.27
346.37	224.42
346.75	224.54
347.13	224.63
347.52	224.72
347.90	224.85
348.28	224.90
348.66	224.99
349.05	224.98
349.43	225.05
349.81	225.13
350.19	225.20
350.57	225.28
350.96	225.38
351.34	225.49
351.72	225.60
352.10	225.73
352.48	225.80
352.87	225.84
353.25	225.91
353.63	225.97
354.01	226.03
354.39	226.11
354.77	226.18
355.15	226.31
355.54	226.34
355.92	226.35
356.30	226.42
356.68	226.60
357.06	226.68
357.44	226.72
357.82	226.77
358.20	226.99
358.58	227.05
358.97	227.11
359.35	227.20
359.73	227.30
360.11	227.35
360.49	227.41
360.87	227.46
361.25	227.54
361.63	227.64
362.01	227.70
362.39	227.72
362.77	227.78
363.15	227.79
363.53	227.83
363.91	227.87
364.29	227.89
364.67	227.74
365.05	227.77
365.43	227.81
365.81	227.85
366.19	227.80
366.57	227.88
366.95	227.88
367.33	227.83
367.71	227.82
368.09	227.86
368.47	227.85
368.85	227.84
369.23	227.86
369.61	227.79
369.99	227.82
370.37	227.83
370.75	227.95
371.13	227.92
371.51	227.87
371.89	227.86
372.27	227.84
372.65	227.83
373.03	227.79
373.41	227.74
373.78	227.69
374.16	227.56
374.54	227.46
374.92	227.40
375.30	227.37
375.68	227.29
376.06	227.25
376.44	227.19
376.82	227.16
377.19	227.11
377.57	227.06
377.95	226.95
378.33	226.89
378.71	226.68
379.09	226.64
379.47	226.62
379.84	226.55
380.22	226.49
380.60	226.41
380.98	226.36
381.36	226.32
381.73	226.25
382.11	226.25
382.49	226.22
382.87	226.16
383.25	226.11
383.62	226.29
384.00	226.21
384.38	226.18
384.76	226.18
385.13	226.20
385.51	226.17
385.89	226.12
386.27	226.09
386.64	226.09
387.02	226.04
387.40	226.00
387.78	225.98
388.15	225.97
388.53	225.94
388.91	225.92
389.29	225.89
389.66	225.90
390.04	225.86
390.42	225.87
390.79	225.87
391.17	225.86
391.55	225.64
391.92	225.64
392.30	225.66
392.68	225.62
393.05	225.60
393.43	225.61
393.81	225.63
394.18	225.62
394.56	225.63
394.94	225.69
395.31	225.69
395.69	225.77
396.06	225.82
396.44	225.86
396.82	225.89
397.19	226.02
397.57	226.05
397.95	226.12
398.32	226.12
398.70	226.19
399.07	226.29
399.45	226.36
399.82	226.43
400.20	226.49
400.58	226.58
400.95	226.60
401.33	226.73
401.70	226.96
402.08	227.11
402.45	227.24
402.83	227.41
403.20	227.59
403.58	227.73
403.95	227.94
404.33	228.16
404.71	228.38
405.08	228.70
405.46	228.95
405.83	229.23
406.21	229.53
406.58	229.87
406.96	230.20
407.33	230.58
407.70	231.01
408.08	231.59
408.45	232.11
408.83	232.66
409.20	233.17
409.58	233.64
409.95	234.27
410.33	234.96
410.70	235.61
411.08	236.37
411.45	237.19
411.82	238.02
412.20	238.96
412.57	240.09
412.95	240.98
413.32	242.14
413.69	243.33
414.07	244.60
414.44	245.98
414.82	247.39
415.19	249.04
415.56	250.72
415.94	252.47
416.31	254.43
416.68	256.40
417.06	258.68
417.43	260.82
417.81	263.27
418.18	265.78
418.55	268.51
418.93	271.35
419.30	274.32
419.67	277.48
420.04	280.72
420.42	284.11
420.79	288.02
421.16	291.97
421.54	295.96
421.91	300.14
422.28	304.48
422.66	309.15
423.03	313.60
423.40	318.26
423.77	323.24
424.15	328.34
424.52	333.63
424.89	339.35
425.26	345.03
425.64	350.30
426.01	356.22
426.38	362.26
426.75	368.48
427.13	374.84
427.50	381.50
427.87	388.41
428.24	395.37
428.61	402.03
428.99	409.21
429.36	417.12
429.73	424.67
430.10	432.20
430.47	439.91
430.85	447.86
431.22	456.32
431.59	465.02
431.96	473.51
432.33	482.96
432.70	491.94
433.08	502.59
433.45	512.61
433.82	522.53
434.19	533.65
434.56	544.60
434.93	555.21
435.30	565.74
435.68	577.67
436.05	589.36
436.42	601.07
436.79	611.79
437.16	623.43
437.53	635.86
437.90	648.30
438.27	660.51
438.64	673.74
439.01	685.78
439.38	696.82
439.75	707.49
440.13	719.67
440.50	731.25
440.87	740.52
441.24	750.72
441.61	761.91
441.98	770.22
442.35	780.08
442.72	790.13
443.09	799.73
443.46	806.02
443.83	810.81
444.20	814.84
444.57	820.57
444.94	824.05
445.31	827.66
445.68	830.81
446.05	833.25
446.42	833.15
446.79	832.77
447.16	832.52
447.53	832.33
447.90	828.94
448.27	825.75
448.64	820.58
449.01	817.11
449.37	809.57
449.74	802.73
450.11	793.86
450.48	784.07
450.85	774.20
451.22	765.77
451.59	757.46
451.96	749.93
452.33	738.99
452.70	729.22
453.07	717.37
453.43	705.51
453.80	693.94
454.17	682.82
454.54	672.59
454.91	661.02
455.28	650.07
455.65	639.72
456.02	628.73
456.38	619.90
456.75	608.57
457.12	599.45
457.49	590.26
457.86	581.53
458.23	573.83
458.59	565.38
458.96	556.71
459.33	549.08
459.70	541.30
460.07	535.37
460.43	528.39
460.80	521.86
461.17	516.18
461.54	510.06
461.91	504.29
462.27	498.43
462.64	493.64
463.01	488.20
463.38	482.70
463.74	477.73
464.11	473.31
464.48	469.32
464.85	465.02
465.21	461.73
465.58	458.07
465.95	453.92
466.32	450.63
466.68	447.41
467.05	444.16
467.42	441.00
467.78	437.62
468.15	434.50
468.52	432.21
468.88	429.16
469.25	426.38
469.62	424.19
469.98	421.82
470.35	419.70
470.72	417.76
471.08	415.82
471.45	414.19
471.82	412.36
472.18	410.46
472.55	409.22
472.92	407.66
473.28	406.45
473.65	405.16
474.02	403.89
474.38	402.83
474.75	402.19
475.11	401.32
475.48	400.90
475.85	400.43
476.21	400.15
476.58	399.95
476.94	400.09
477.31	400.09
477.67	400.13
478.04	400.40
478.41	400.80
478.77	401.38
479.14	401.71
479.50	402.47
479.87	403.45
480.23	404.41
480.60	405.31
480.96	406.22
481.33	407.63
481.69	409.02
482.06	410.38
482.42	411.63
482.79	413.18
483.15	415.02
483.52	417.09
483.88	419.07
484.25	421.16
484.61	423.37
484.98	425.76
485.34	428.45
485.71	431.24
486.07	434.25
486.44	437.20
486.80	440.54
487.17	443.94
487.53	447.65
487.90	451.52
488.26	455.76
488.62	460.22
488.99	464.67
489.35	469.36
489.72	474.40
490.08	479.70
490.44	485.12
490.81	490.73
491.17	496.54
491.54	502.77
491.90	509.14
492.26	515.94
492.63	523.08
492.99	530.54
493.36	538.19
493.72	546.19
494.08	554.43
494.45	563.06
494.81	572.08
495.17	581.34
495.54	591.12
495.90	601.34
496.26	611.74
496.63	622.47
496.99	633.57
497.35	645.20
497.72	657.14
498.08	669.40
498.44	682.02
498.80	695.32
499.17	708.90
499.53	722.94
499.89	737.40
500.26	752.11
500.62	767.18
500.98	783.13
501.34	799.12
501.71	815.86
502.07	832.96
502.43	850.51
502.79	868.32
503.16	886.60
503.52	905.11
503.88	924.05
504.24	943.47
504.60	963.15
504.97	983.44
505.33	1004.23
505.69	1026.13
506.05	1048.25
506.41	1070.39
506.78	1092.68
507.14	1115.48
507.50	1138.82
507.86	1162.54
508.22	1186.50
508.59	1210.32
508.95	1235.15
509.31	1260.58
509.67	1286.65
510.03	1312.72
510.39	1338.69
510.75	1364.74
511.12	1391.07
511.48	1417.82
511.84	1444.46
512.20	1471.40
512.56	1499.52
512.92	1527.53
513.28	1554.80
513.64	1582.55
514.00	1610.66
514.37	1639.08
514.73	1667.57
515.09	1695.39
515.45	1723.44
515.81	1751.87
516.17	1780.04
516.53	1807.55
516.89	1834.72
517.25	1862.17
517.61	1889.44
517.97	1917.37
518.33	1944.81
518.69	1972.22
519.05	1999.88
519.41	2027.74
519.77	2055.82
520.13	2082.30
520.49	2108.66
520.85	2135.51
521.21	2161.73
521.57	2188.29
521.93	2213.66
522.29	2239.82
522.65	2265.75
523.01	2291.45
523.37	2316.35
523.73	2342.01
524.09	2367.37
524.45	2392.60
524.81	2417.24
525.17	2441.77
525.53	2465.26
525.89	2489.23
526.25	2512.93
526.61	2534.88
526.97	2556.92
527.33	2578.57
527.68	2600.29
528.04	2621.58
528.40	2641.82
528.76	2661.99
529.12	2681.61
529.48	2702.09
529.84	2719.82
530.20	2737.78
530.56	2755.11
530.91	2772.46
531.27	2789.10
531.63	2804.95
531.99	2820.26
532.35	2835.38
532.71	2850.13
533.07	2865.42
533.42	2878.70
533.78	2892.00
534.14	2906.50
534.50	2919.87
534.86	2933.91
535.21	2945.37
535.57	2956.85
535.93	2967.82
536.29	2977.22
536.65	2986.36
537.00	2994.24
537.36	3003.19
537.72	3011.36
538.08	3019.09
538.44	3025.42
538.79	3031.72
539.15	3036.69
539.51	3040.97
539.87	3043.93
540.22	3045.07
540.58	3046.51
540.94	3048.51
541.29	3049.66
541.65	3049.26
542.01	3048.46
542.37	3045.85
542.72	3045.15
543.08	3042.58
543.44	3040.18
543.79	3037.65
544.15	3034.34
544.51	3030.79
544.87	3026.42
545.22	3021.04
545.58	3015.09
545.94	3009.63
546.29	3002.69
546.65	2995.81
547.01	2989.07
547.36	2982.95
547.72	2977.01
548.07	2969.29
548.43	2960.43
548.79	2951.12
549.14	2942.11
549.50	2933.23
549.86	2923.55
550.21	2911.98
550.57	2901.74
550.92	2889.89
551.28	2878.06
551.64	2866.59
551.99	2854.98
552.35	2842.89
552.70	2830.69
553.06	2819.06
553.41	2806.97
553.77	2794.44
554.13	2782.04
554.48	2768.51
554.84	2753.62
555.19	2739.15
555.55	2724.77
555.90	2710.91
556.26	2697.36
556.61	2682.75
556.97	2666.96
557.32	2651.53
557.68	2636.56
558.03	2621.13
558.39	2606.56
558.74	2592.82
559.10	2577.23
559.45	2561.51
559.81	2546.39
560.16	2530.87
560.52	2515.05
560.87	2499.59
561.23	2483.62
561.58	2468.21
561.94	2452.45
562.29	2436.37
562.64	2420.48
563.00	2404.53
563.35	2388.87
563.71	2372.71
564.06	2356.75
564.42	2341.27
564.77	2325.95
565.12	2310.29
565.48	2294.27
565.83	2278.29
566.19	2262.22
566.54	2246.32
566.89	2230.07
567.25	2213.87
567.60	2198.59
567.96	2182.77
568.31	2165.31
568.66	2148.56
569.02	2132.54
569.37	2117.07
569.72	2102.12
570.08	2086.79
570.43	2070.78
570.78	2054.49
571.14	2038.22
571.49	2021.86
571.84	2005.74
572.20	1988.38
572.55	1971.70
572.90	1955.20
573.26	1938.97
573.61	1922.05
573.96	1905.61
574.31	1889.06
574.67	1872.13
575.02	1854.83
575.37	1837.49
575.72	1821.08
576.08	1804.59
576.43	1787.05
576.78	1769.87
577.13	1752.92
577.49	1736.14
577.84	1719.96
578.19	1703.34
578.54	1686.61
578.90	1669.79
579.25	1652.77
579.60	1637.11
579.95	1621.14
580.30	1605.15
580.66	1588.81
581.01	1572.58
581.36	1556.40
581.71	1541.11
582.06	1525.90
582.42	1510.52
582.77	1495.48
583.12	1480.71
583.47	1466.04
583.82	1451.56
584.17	1436.43
584.53	1421.43
584.88	1406.77
585.23	1391.95
585.58	1377.53
585.93	1362.97
586.28	1349.45
586.63	1335.85
586.98	1321.64
587.34	1307.94
587.69	1294.05
588.04	1280.44
588.39	1267.11
588.74	1253.47
589.09	1239.91
589.44	1225.99
589.79	1212.78
590.14	1199.60
590.49	1186.42
590.84	1173.44
591.19	1160.89
591.54	1148.51
591.89	1135.78
592.25	1123.32
592.60	1110.73
592.95	1098.29
593.30	1086.34
593.65	1074.06
594.00	1062.10
594.35	1051.09
594.70	1039.33
595.05	1028.19
595.40	1016.95
595.75	1005.55
596.10	994.79
596.45	983.92
596.80	973.60
597.15	963.17
597.50	952.70
597.85	942.67
598.19	932.60
598.54	922.46
598.89	912.86
599.24	903.65
599.59	894.18
599.94	885.43
600.29	876.77
600.64	867.87
600.99	858.84
601.34	850.19
601.69	840.97
602.04	832.74
602.39	824.38
602.74	816.27
603.08	808.25
603.43	800.26
603.78	792.30
604.13	784.32
604.48	776.37
604.83	768.76
605.18	761.09
605.53	753.65
605.87	746.21
606.22	738.88
606.57	731.47
606.92	724.04
607.27	716.63
607.62	709.34
607.96	702.34
608.31	695.88
608.66	689.23
609.01	682.91
609.36	676.56
609.70	670.19
610.05	663.78
610.40	657.58
610.75	651.34
611.10	645.36
611.44	639.36
611.79	633.55
612.14	627.59
612.49	621.71
612.83	616.16
613.18	610.69
613.53	605.21
613.88	599.85
614.22	594.90
614.57	589.86
614.92	584.96
615.27	580.16
615.61	575.24
615.96	570.41
616.31	565.55
616.65	560.82
617.00	556.22
617.35	551.73
617.70	547.25
618.04	542.89
618.39	538.60
618.74	534.61
619.08	530.55
619.43	526.65
619.78	522.74
620.12	518.73
620.47	514.94
620.82	511.25
621.16	507.62
621.51	504.02
621.85	500.42
622.20	496.86
622.55	493.35
622.89	489.86
623.24	486.55
623.59	483.31
623.93	480.15
624.28	477.11
624.62	474.27
624.97	471.48
625.32	468.59
625.66	465.68
626.01	462.73
626.35	459.95
626.70	457.13
627.04	454.49
627.39	451.85
627.73	449.27
628.08	446.73
628.43	444.21
628.77	441.63
629.12	439.14
629.46	436.79
629.81	434.59
630.15	432.28
630.50	430.01
630.84	427.80
631.19	425.62
631.53	423.56
631.88	421.30
632.22	419.12
632.57	417.26
632.91	415.36
633.26	413.52
633.60	411.70
633.95	409.97
634.29	408.14
634.64	406.34
634.98	404.45
635.32	402.74
635.67	401.19
636.01	399.63
636.36	398.13
636.70	396.69
637.05	395.09
637.39	393.66
637.73	392.23
638.08	390.86
638.42	389.54
638.77	388.08
639.11	386.59
639.45	385.16
639.80	383.69
640.14	382.27
640.49	380.87
640.83	379.46
641.17	378.12
641.52	376.80
641.86	375.53
642.20	374.40
642.55	373.09
642.89	371.80
643.23	370.58
643.58	369.50
643.92	368.25
644.26	367.09
644.61	366.00
644.95	364.85
645.29	363.66
645.64	362.44
645.98	361.34
646.32	360.37
646.66	359.32
647.01	358.29
647.35	357.37
647.69	356.41
648.04	355.52
648.38	354.55
648.72	353.64
649.06	352.72
649.41	351.79
649.75	350.91
650.09	350.05
650.43	349.18
650.78	348.24
651.12	347.40
651.46	346.56
651.80	345.73
652.14	344.95
652.49	344.25
652.83	343.47
653.17	342.66
653.51	341.87
653.85	341.20
654.20	340.49
654.54	339.68
654.88	338.92
655.22	338.21
655.56	337.48
655.90	336.80
656.25	336.12
656.59	335.45
656.93	334.82
657.27	334.24
657.61	333.59
657.95	333.01
658.29	332.38
658.64	331.78
658.98	331.12
659.32	330.47
659.66	329.86
660.00	329.30
660.34	328.74
660.68	328.13
661.02	327.45
661.36	326.81
661.70	326.23
662.05	325.66
662.39	325.11
662.73	324.64
663.07	324.21
663.41	323.73
663.75	323.21
664.09	322.69
664.43	322.07
664.77	321.53
665.11	320.94
665.45	320.42
665.79	319.90
666.13	319.39
666.47	318.85
666.81	318.29
667.15	317.68
667.49	317.20
667.83	316.78
668.17	316.33
668.51	315.92
668.85	315.53
669.19	315.19
669.53	314.67
669.87	314.12
670.21	313.56
670.55	313.06
670.89	312.65
671.23	312.18
671.57	311.77
671.91	311.42
672.25	311.08
672.58	310.75
672.92	310.32
673.26	309.98
673.60	309.63
673.94	309.26
674.28	308.93
674.62	308.57
674.96	308.14
675.30	307.78
675.64	307.35
675.97	306.90
676.31	306.42
676.65	306.01
676.99	305.69
677.33	305.26
677.67	304.87
678.01	304.39
678.34	303.99
678.68	303.62
679.02	303.16
679.36	302.72
679.70	302.27
680.04	301.87
680.37	301.46
680.71	301.07
681.05	300.71
681.39	300.31
681.73	299.86
682.06	299.43
682.40	299.03
682.74	298.69
683.08	298.38
683.42	298.00
683.75	297.66
684.09	297.20
684.43	296.82
684.77	296.41
685.10	296.04
685.44	295.64
685.78	295.22
686.12	294.84
686.45	294.42
686.79	293.99
687.13	293.59
687.46	293.15
687.80	292.73
688.14	292.26
688.48	291.83
688.81	291.41
689.15	291.04
689.49	290.59
689.82	290.15
690.16	289.61
690.50	289.17
690.83	288.71
691.17	288.26
691.51	287.82
691.84	287.43
692.18	286.98
692.52	286.52
692.85	286.10
693.19	285.71
693.52	285.29
693.86	284.84
694.20	284.41
694.53	283.99
694.87	283.52
695.21	283.07
695.54	282.63
695.88	282.16
696.21	281.67
696.55	281.23
696.88	280.78
697.22	280.35
697.56	279.95
697.89	279.47
698.23	279.06
698.56	278.61
698.90	278.20
699.23	277.75
699.57	277.34
699.90	276.90
700.24	276.43
700.58	276.03
700.91	275.66
701.25	275.40
701.58	275.08
701.92	274.74
702.25	274.35
702.59	273.94
702.92	273.55
703.26	273.14
703.59	272.73
703.93	272.46
704.26	272.07
704.60	271.64
704.93	271.24
705.26	270.82
705.60	270.46
705.93	270.00
706.27	269.68
706.60	269.34
706.94	269.01
707.27	268.59
707.61	268.19
707.94	267.77
708.27	267.20
708.61	266.73
708.94	266.30
709.28	265.90
709.61	265.52
709.94	265.16
710.28	264.82
710.61	264.49
710.95	263.97
711.28	263.72
711.61	263.36
711.95	263.05
712.28	262.68
712.61	262.30
712.95	262.05
713.28	261.77
713.61	261.37
713.95	260.97
714.28	260.65
714.61	260.28
714.95	259.95
715.28	259.61
715.61	259.29
715.95	258.99
716.28	258.66
716.61	258.38
716.95	258.04
717.28	257.73
717.61	257.40
717.94	257.11
718.28	256.68
718.61	256.38
718.94	256.04
719.27	255.75
719.61	255.48
719.94	255.15
720.27	254.77
720.60	254.49
720.94	254.20
721.27	253.93
721.60	253.68
721.93	253.40
722.27	253.18
722.60	252.90
722.93	252.59
723.26	252.35
723.59	252.05
723.93	251.81
724.26	251.56
724.59	251.30
724.92	251.06
725.25	250.86
725.59	250.62
725.92	250.40
726.25	250.16
726.58	249.91
726.91	249.66
727.24	249.44
727.57	249.19
727.91	248.92
728.24	248.71
728.57	248.47
728.90	248.26
729.23	247.97
729.56	247.84
729.89	247.62
730.22	247.39
730.55	247.17
730.89	246.95
731.22	246.72
731.55	246.51
731.88	246.30
732.21	246.05
732.54	245.83
732.87	245.63
733.20	245.45
733.53	245.25
733.86	245.07
734.19	244.86
734.52	244.71
734.85	244.66
735.18	244.45
735.51	244.32
735.84	244.13
736.17	244.01
736.50	243.73
736.83	243.77
737.16	243.59
737.49	243.42
737.82	243.23
738.15	243.08
738.48	242.89
738.81	242.71
739.14	242.52
739.47	242.34
739.80	242.15
740.13	241.99
740.46	241.79
740.79	241.58
741.12	241.40
741.45	241.19
741.78	240.91
742.11	240.79
742.44	240.57
742.77	240.42
743.10	240.22
743.43	240.05
743.75	239.69
744.08	239.81
744.41	239.63
744.74	239.47
745.07	239.28
745.40	239.18
745.73	239.11
746.06	238.97
746.39	238.86
746.71	238.70
747.04	238.54
747.37	238.39
747.70	238.29
748.03	238.16
748.36	238.06
748.68	237.92
749.01	237.73
749.34	237.61
749.67	237.48
750.00	237.38
750.33	237.39
750.65	237.28
750.98	236.88
751.31	236.77
751.64	236.67
751.97	236.64
752.29	236.50
752.62	236.29
752.95	236.15
753.28	236.00
753.60	235.88
753.93	235.80
754.26	235.71
754.59	235.53
754.91	235.40
755.24	235.26
755.57	235.14
755.90	235.03
756.22	234.89
756.55	234.75
756.88	234.60
757.20	234.36
757.53	234.20
757.86	234.09
758.19	233.99
758.51	233.87
758.84	233.68
759.17	233.56
759.49	233.47
759.82	233.46
760.15	233.38
760.47	233.28
760.80	233.13
761.13	233.06
761.45	232.97
761.78	232.88
762.11	232.80
762.43	232.68
762.76	232.59
763.08	232.52
763.41	232.45
763.74	232.38
764.06	232.30
764.39	232.22
764.71	232.14
765.04	232.03
765.37	231.93
765.69	231.86
766.02	231.77
766.34	231.68
766.67	231.53
767.00	231.49
767.32	231.51
767.65	231.55
767.97	231.46
768.30	231.41
768.62	231.33
768.95	231.25
769.27	231.18
769.60	231.14
769.92	231.03
770.25	230.93
770.57	230.83
770.90	230.76
771.22	230.68
771.55	230.62
771.87	230.58
772.20	230.51
772.52	230.61
772.85	230.77
773.17	230.72
773.50	230.64
773.82	230.55
774.15	230.40
774.47	230.23
774.80	230.16
775.12	230.10
775.45	230.05
775.77	230.00
776.09	229.97
776.42	229.91
776.74	229.92
777.07	229.86
777.39	229.83
777.72	229.77
778.04	229.75
778.36	229.69
778.69	229.64
779.01	229.61
779.33	229.41
779.66	229.16
779.98	229.10
780.31	229.07
780.63	229.11
780.95	229.11
781.28	229.06
781.60	229.01
781.92	228.97
782.25	228.92
782.57	228.89
782.89	228.83
783.22	228.78
783.54	228.70
783.86	228.69
784.19	228.64
784.51	228.66
784.83	228.60
785.16	228.57
785.48	228.53
785.80	228.49
786.12	228.48
786.45	228.44
786.77	228.42
787.09	228.38
787.42	228.27
787.74	228.24
788.06	228.22
788.38	228.19
788.71	228.14
789.03	228.12
789.35	228.11
789.67	228.06
789.99	228.05
790.32	228.00
790.64	227.99
790.96	228.13
791.28	228.04
791.61	228.01
791.93	227.99
792.25	227.96
792.57	228.06
792.89	228.00
793.21	227.98
793.54	227.93
793.86	227.89
794.18	227.87
794.50	227.81
794.82	227.78
795.14	227.79
795.47	227.80
795.79	227.78
796.11	227.71
796.43	227.69
796.75	227.66
797.07	227.64
797.39	227.61
797.71	227.43
798.04	227.42
798.36	227.40
798.68	227.37
799.00	227.37
799.32	227.25
799.64	227.26
799.96	227.24
800.28	227.26
800.60	227.24
800.92	227.23
801.24	227.20
801.56	227.20
801.89	227.16
802.21	227.14
802.53	227.09
802.85	227.11
803.17	227.18
803.49	227.12
803.81	227.09
804.13	227.05
804.45	227.02
804.77	227.01
805.09	226.99
805.41	226.95
805.73	226.90
806.05	226.84
806.37	226.80
806.69	226.77
807.01	226.73
807.33	226.72
807.65	226.63
807.97	226.70
808.28	226.66
808.60	226.64
808.92	226.59
809.24	226.69
809.56	226.64
809.88	226.55
810.20	226.54
810.52	226.57
810.84	226.53
811.16	226.50
811.48	226.47
811.80	226.52
812.12	226.50
812.43	226.52
812.75	226.52
813.07	226.49
813.39	226.49
813.71	226.45
814.03	226.42
814.35	226.42
814.67	226.33
814.98	226.30
815.30	226.29
815.62	226.25
815.94	226.11
816.26	226.12
816.58	226.08
816.89	226.08
817.21	226.02
817.53	226.03
817.85	226.03
818.17	226.01
818.48	225.92
818.80	225.95
819.12	225.91
819.44	225.87
819.76	225.83
820.07	225.82
820.39	225.80
820.71	225.81
821.03	225.80
821.34	225.78
821.66	225.79
821.98	225.80
822.30	225.79
822.61	225.89
822.93	225.85
823.25	225.84
823.57	225.82
823.88	225.83
824.20	225.82
824.52	225.83
824.83	225.82
825.15	225.80
825.47	225.77
825.79	225.77
826.10	225.76
826.42	225.75
826.74	225.75
827.05	225.74
827.37	225.73
827.69	225.71
828.00	225.72
828.32	225.70
828.64	225.67
828.95	225.76
829.27	225.70
829.58	225.69
829.90	225.71
830.22	225.72
830.53	225.67
830.85	225.65
831.17	225.59
831.48	225.59
831.80	225.59
832.11	225.58
832.43	225.54
832.75	225.53
833.06	225.64
833.38	225.58
833.69	225.57
834.01	225.57
834.32	225.56
834.64	225.53
834.96	225.52
835.27	225.52
835.59	225.44
835.90	225.41
836.22	225.41
836.53	225.37
836.85	225.34
837.16	225.52
837.48	225.52
837.79	225.58
838.11	225.58
838.42	225.57
838.74	225.59
839.05	225.57
839.37	225.56
839.68	225.44
840.00	225.43
840.31	225.45
840.63	225.43
840.94	225.41
841.26	225.39
841.57	225.38
841.88	225.39
842.20	225.36
842.51	225.32
842.83	225.32
843.14	225.48
843.46	225.47
843.77	225.36
844.08	225.34
844.40	225.28
844.71	225.26
845.03	225.24
845.34	225.21
845.65	225.21
845.97	225.21
846.28	225.22
846.60	225.23
846.91	225.20
847.22	225.19
847.54	225.23
847.85	225.24
848.16	225.22
848.48	225.18
848.79	225.25
849.10	225.28
849.42	225.28
849.73	225.11
850.04	225.10
850.36	225.04
850.67	225.07
850.98	225.07
851.30	225.08
851.61	225.08
851.92	225.07
852.23	225.12
852.55	225.13
852.86	225.13
853.17	225.14
853.49	225.17
853.80	225.21
854.11	225.21
854.42	225.23
854.74	225.22
855.05	225.23
855.36	225.13
855.67	225.13
855.99	225.12
856.30	225.34
856.61	225.34
856.92	225.34
857.23	225.34
857.55	225.32
857.86	225.30
858.17	225.33
858.48	225.30
858.79	225.26
859.11	225.27
859.42	225.25
859.73	225.23
860.04	225.21
860.35	225.15
860.66	225.09
860.98	225.08
861.29	225.11
861.60	225.09
861.91	225.13
862.22	225.10
862.53	225.07
862.84	224.85
863.16	224.89
863.47	224.85
863.78	224.82
864.09	224.84
864.40	224.86
864.71	224.85
865.02	224.87
865.33	224.85
865.64	224.82
865.95	224.82
866.27	224.93
866.58	224.91
866.89	224.94
867.20	224.94
867.51	224.91
867.82	224.89
868.13	224.95
868.44	224.90
868.75	224.93
869.06	224.94
869.37	224.96
869.68	224.91
869.99	224.95
870.30	224.96
870.61	224.97
870.92	224.94
871.23	224.92
871.54	224.95
871.85	224.99
872.16	225.01
872.47	225.00
872.78	224.89
873.09	224.90
873.40	224.88
873.71	224.89
874.02	224.91
874.33	224.90
874.64	224.85
874.95	224.89
875.26	224.85
875.56	224.84
875.87	224.82
876.18	224.82
876.49	225.00
876.80	224.98
877.11	224.94
877.42	224.95
877.73	224.96
878.04	224.92
878.35	224.91
878.66	224.91
878.96	224.91
879.27	224.90
879.58	224.89
879.89	224.88
880.20	224.93
880.51	224.91
880.82	224.92
881.12	224.93
881.43	224.88
881.74	224.86
882.05	224.85
882.36	224.87
882.67	224.88
882.97	224.68
883.28	224.66
883.59	224.66
883.90	224.67
884.21	224.69
884.51	224.69
884.82	224.66
885.13	224.65
885.44	224.65
885.74	224.65
886.05	224.64
886.36	224.65
886.67	224.58
886.98	224.68
887.28	224.70
887.59	224.69
887.90	224.70
888.20	224.70
888.51	224.74
888.82	224.70
889.13	224.71
889.43	224.88
889.74	224.87
890.05	224.87
890.35	224.85
890.66	224.81
890.97	224.80
891.28	224.79
891.58	224.79
891.89	224.78
892.20	224.76
892.50	224.75
892.81	224.74
893.12	224.73
893.42	224.64
893.73	224.64
894.04	224.64
894.34	224.65
894.65	224.65
894.95	224.63
895.26	224.64
895.57	224.71
895.87	224.53
896.18	224.56
896.48	224.57
896.79	224.57
897.10	224.60
897.40	224.61
897.71	224.63
898.01	224.62
898.32	224.64
898.63	224.63
898.93	224.64
899.24	224.65
899.54	224.65
899.85	224.64
900.15	224.63
900.46	224.63
900.76	224.64
901.07	224.63
901.38	224.63
901.68	224.65
901.99	224.55
902.29	224.57
902.60	224.55
902.90	224.53
903.21	224.53
903.51	224.51
903.82	224.54
904.12	224.54
904.43	224.55
904.73	224.54
905.03	224.55
905.34	224.73
905.64	224.72
905.95	224.72
906.25	224.71
906.56	224.71
906.86	224.71
907.17	224.69
907.47	224.70
907.77	224.69
908.08	224.65
908.38	224.66
908.69	224.67
908.99	224.70
909.30	224.71
909.60	224.71
909.90	224.71
910.21	224.65
910.51	224.62
910.81	224.62
911.12	224.63
911.42	224.63
911.73	224.44
912.03	224.45
912.33	224.49
912.64	224.47
912.94	224.46
913.24	224.43
913.55	224.42
913.85	224.40
914.15	224.44
914.46	224.46
914.76	224.45
915.06	224.44
915.37	224.40
915.67	224.39
915.97	224.39
916.27	224.36
916.58	224.37
916.88	224.37
917.18	224.35
917.49	224.47
917.79	224.46
918.09	224.49
918.39	224.53
918.70	224.52
919.00	224.53
919.30	224.62
919.60	224.61
919.91	224.59
920.21	224.61
920.51	224.56
920.81	224.55
921.12	224.58
921.42	224.57
921.72	224.59
922.02	224.60
922.32	224.62
922.63	224.63
922.93	224.73
923.23	224.74
923.53	224.73
923.83	224.61
924.13	224.63
924.44	224.62
924.74	224.65
925.04	224.69
925.34	224.68
925.64	224.60
925.94	224.61
926.24	224.71
926.55	224.69
926.85	224.72
927.15	224.72
927.45	224.72
927.75	224.71
928.05	224.71
928.35	224.70
928.65	224.73
928.95	224.74
929.26	224.66
929.56	224.69
929.86	224.71
930.16	224.70
930.46	224.68
930.76	224.69
931.06	224.60
931.36	224.55
931.66	224.58
931.96	224.61
932.26	224.62
932.56	224.54
932.86	224.55
933.16	224.55
933.46	224.53
933.76	224.50
934.06	224.54
934.36	224.60
934.66	224.59
934.96	224.56
935.26	224.57
935.56	224.59
935.86	224.55
936.16	224.52
936.46	224.51
936.76	224.50
937.06	224.47
937.36	224.48
937.66	224.49
937.96	224.47
938.26	224.43
938.56	224.42
938.86	224.43
939.16	224.47
939.46	224.48
939.76	224.49
940.06	224.49
940.35	224.46
940.65	224.36
940.95	224.38
941.25	224.33
941.55	224.31
941.85	224.29
942.15	224.34
942.45	224.39
942.75	224.38
943.04	224.39
943.34	224.43
943.64	224.41
943.94	224.38
944.24	224.38
944.54	224.40
944.84	224.40
945.13	224.37
945.43	224.33
945.73	224.32
946.03	224.30
946.33	224.28
946.62	224.27
946.92	224.27
947.22	224.28
947.52	224.30
947.82	224.32
948.11	224.30
948.41	224.26
948.71	224.20
949.01	224.21
949.31	224.20
949.60	224.18
949.90	224.21
950.20	224.20
950.50	224.19
950.79	224.18
951.09	224.21
951.39	224.21
951.69	224.19
951.98	224.23
952.28	224.24
952.58	224.24
952.87	224.25
953.17	224.27
953.47	224.25
953.76	224.24
954.06	224.21
954.36	224.18
954.66	224.18
954.95	224.24
955.25	224.25
955.55	224.27
955.84	224.24
956.14	224.25
956.44	224.27
956.73	224.25
957.03	224.26
957.32	224.26
957.62	224.25
957.92	224.29
958.21	224.27
958.51	224.48
958.81	224.51
959.10	224.53
959.40	224.57
959.69	224.58
959.99	224.61
960.29	224.62
960.58	224.62
960.88	224.69
961.17	224.67
961.47	224.68
961.76	224.66
962.06	224.70
962.36	224.68
962.65	224.69
962.95	224.70
963.24	224.69
963.54	224.69
963.83	224.71
964.13	224.69
964.42	224.68
964.72	224.52
965.01	224.52
965.31	224.51
965.60	224.46
965.90	224.57
966.19	224.53
966.49	224.55
966.78	224.54
967.08	224.52
967.37	224.52
967.67	224.49
967.96	224.53
968.26	224.52
968.55	224.54
968.85	224.53
969.14	224.53
969.43	224.53
969.73	224.51
970.02	224.50
970.32	224.48
970.61	224.45
970.91	224.40
971.20	224.38
971.49	224.36
971.79	224.38
972.08	224.25
972.38	224.26
972.67	224.25
972.96	224.28
973.26	224.24
973.55	224.29
973.85	224.29
974.14	224.26
974.43	224.27
974.73	224.24
975.02	224.22
975.31	224.22
975.61	224.22
975.90	224.21
976.19	224.19
976.49	224.21
976.78	224.22
977.07	224.22
977.37	224.24
977.66	224.26
977.95	224.23
978.24	224.25
978.54	224.28
978.83	224.27
979.12	224.25
979.42	224.26
979.71	224.22
980.00	224.21
980.29	224.22
980.59	224.18
980.88	224.24
981.17	224.23
981.46	224.24
981.76	224.24
982.05	224.30
982.34	224.31
982.63	224.31
982.93	224.31
983.22	224.36
983.51	224.37
983.80	224.39
984.09	224.42
984.39	224.40
984.68	224.37
984.97	224.39
985.26	224.37
985.55	224.39
985.85	224.36
986.14	224.39
986.43	224.41
986.72	224.40
987.01	224.34
987.30	224.34
987.59	224.33
987.89	224.33
988.18	224.27
988.47	224.26
988.76	224.24
989.05	224.23
989.34	224.20
989.63	224.24
989.92	224.21
990.22	224.18
990.51	224.18
990.80	224.17
991.09	224.19
991.38	224.21
991.67	224.19
991.96	224.18
992.25	224.18
992.54	224.14
992.83	224.15
993.12	224.15
993.41	224.18
993.70	224.25
993.99	224.29
994.28	224.32
994.58	224.35
994.87	224.33
995.16	224.33
995.45	224.31
995.74	224.24
996.03	224.27
996.32	224.30
996.61	224.34
996.90	224.34
997.19	224.33
997.48	224.33
997.77	224.31
998.06	224.33
998.34	224.31
998.63	224.32
998.92	224.32
999.21	224.35
999.50	224.35
999.79	224.28
1000.08	224.27
1000.37	224.27
1000.66	224.25
1000.95	224.30
1001.24	224.31
1001.53	224.34
1001.82	224.34
1002.11	224.29
1002.40	224.31
1002.68	224.34
1002.97	224.47
1003.26	224.45
1003.55	224.42
1003.84	224.44
1004.13	224.50
1004.42	224.49
1004.71	224.49
1004.99	224.48
1005.28	224.52
1005.57	224.50
1005.86	224.48
1006.15	224.47
1006.44	224.44
1006.72	224.46
1007.01	224.43
1007.30	224.43
1007.59	224.40
1007.88	224.40
1008.17	224.42
1008.45	224.37
1008.74	224.30
1009.03	224.21
1009.32	224.22
1009.60	224.22
1009.89	224.20
1010.18	224.12
1010.47	224.12
1010.76	224.11
1011.04	224.11
1011.33	224.10
1011.62	224.11
1011.91	224.13
1012.19	224.13
1012.48	224.14
1012.77	224.14
1013.05	224.21
1013.34	224.21
1013.63	224.20
1013.92	224.21
1014.20	224.20
1014.49	224.21
1014.78	224.23
1015.06	224.17
1015.35	224.17
1015.64	224.20
1015.92	224.23
1016.21	224.24
1016.50	224.24
1016.78	224.27
1017.07	224.28
1017.36	224.25
1017.64	224.22
1017.93	224.23
1018.22	224.22
1018.50	224.21
1018.79	224.21
1019.08	224.14
1019.36	224.15
1019.65	224.14
1019.93	224.18
1020.22	224.21
1020.51	224.31
1020.79	224.29
1021.08	223.99
1021.36	223.91
1021.65	224.20
1021.94	224.14
1022.22	224.34
1022.51	223.84
1022.79	225.11
1023.08	224.47
1023.36	226.39
1023.65	223.79
>>>>>End Processed Spectral Data<<<<<
