SpectraSuite Data File
++++++++++++++++++++++++++++++++++++
Date: Tue Oct 06 16:51:09 EDT 2015
User: lab3
Dark Spectrum Present: No
Reference Spectrum Present: No
Number of Sampled Component Spectra: 1
Spectrometers: USB2E7196
Integration Time (usec): 66000 (USB2E7196)
Spectra Averaged: 1000 (USB2E7196)
Boxcar Smoothing: 10 (USB2E7196)
Correct for Electrical Dark: No (USB2E7196)
Strobe/Lamp Enabled: No (USB2E7196)
Correct for Detector Non-linearity: No (USB2E7196)
Correct for Stray Light: No (USB2E7196)
Number of Pixels in Processed Spectrum: 2048
>>>>>Begin Processed Spectral Data<<<<<
339.09	0.00
339.48	215.19
339.86	216.74
340.24	218.07
340.63	219.49
341.01	223.50
341.39	222.20
341.78	223.85
342.16	225.06
342.54	225.20
342.93	213.75
343.31	224.54
343.69	225.08
344.07	225.53
344.46	225.98
344.84	226.38
345.22	226.59
345.60	226.88
345.99	227.07
346.37	227.21
346.75	227.34
347.13	227.43
347.52	227.51
347.90	227.63
348.28	227.68
348.66	227.76
349.05	227.75
349.43	227.82
349.81	227.89
350.19	227.96
350.57	228.05
350.96	228.15
351.34	228.25
351.72	228.36
352.10	228.50
352.48	228.57
352.87	228.62
353.25	228.69
353.63	228.74
354.01	228.80
354.39	228.89
354.77	228.96
355.15	229.09
355.54	229.13
355.92	229.14
356.30	229.21
356.68	229.39
357.06	229.47
357.44	229.51
357.82	229.58
358.20	229.80
358.58	229.86
358.97	229.93
359.35	230.03
359.73	230.13
360.11	230.17
360.49	230.23
360.87	230.27
361.25	230.33
361.63	230.43
362.01	230.49
362.39	230.50
362.77	230.54
363.15	230.56
363.53	230.59
363.91	230.64
364.29	230.67
364.67	230.52
365.05	230.55
365.43	230.58
365.81	230.62
366.19	230.56
366.57	230.64
366.95	230.64
367.33	230.61
367.71	230.60
368.09	230.64
368.47	230.63
368.85	230.64
369.23	230.67
369.61	230.59
369.99	230.64
370.37	230.65
370.75	230.76
371.13	230.73
371.51	230.69
371.89	230.67
372.27	230.65
372.65	230.64
373.03	230.59
373.41	230.55
373.78	230.49
374.16	230.36
374.54	230.27
374.92	230.22
375.30	230.17
375.68	230.09
376.06	230.04
376.44	229.99
376.82	229.95
377.19	229.90
377.57	229.86
377.95	229.76
378.33	229.70
378.71	229.49
379.09	229.47
379.47	229.44
379.84	229.38
380.22	229.31
380.60	229.24
380.98	229.19
381.36	229.15
381.73	229.08
382.11	229.07
382.49	229.02
382.87	228.96
383.25	228.92
383.62	229.10
384.00	229.02
384.38	228.99
384.76	228.99
385.13	229.00
385.51	228.96
385.89	228.89
386.27	228.87
386.64	228.87
387.02	228.81
387.40	228.76
387.78	228.74
388.15	228.72
388.53	228.69
388.91	228.67
389.29	228.64
389.66	228.64
390.04	228.60
390.42	228.61
390.79	228.60
391.17	228.60
391.55	228.38
391.92	228.39
392.30	228.39
392.68	228.34
393.05	228.32
393.43	228.33
393.81	228.36
394.18	228.34
394.56	228.36
394.94	228.42
395.31	228.43
395.69	228.50
396.06	228.55
396.44	228.60
396.82	228.61
397.19	228.75
397.57	228.76
397.95	228.84
398.32	228.84
398.70	228.90
399.07	228.99
399.45	229.04
399.82	229.11
400.20	229.18
400.58	229.27
400.95	229.28
401.33	229.41
401.70	229.63
402.08	229.77
402.45	229.89
402.83	230.06
403.20	230.24
403.58	230.37
403.95	230.58
404.33	230.81
404.71	231.03
405.08	231.34
405.46	231.59
405.83	231.87
406.21	232.15
406.58	232.48
406.96	232.81
407.33	233.19
407.70	233.61
408.08	234.18
408.45	234.70
408.83	235.25
409.20	235.74
409.58	236.20
409.95	236.82
410.33	237.51
410.70	238.15
411.08	238.90
411.45	239.70
411.82	240.51
412.20	241.44
412.57	242.54
412.95	243.44
413.32	244.59
413.69	245.77
414.07	247.04
414.44	248.41
414.82	249.81
415.19	251.45
415.56	253.13
415.94	254.88
416.31	256.83
416.68	258.79
417.06	261.06
417.43	263.19
417.81	265.63
418.18	268.12
418.55	270.84
418.93	273.69
419.30	276.66
419.67	279.81
420.04	283.04
420.42	286.44
420.79	290.33
421.16	294.27
421.54	298.25
421.91	302.43
422.28	306.78
422.66	311.45
423.03	315.90
423.40	320.55
423.77	325.54
424.15	330.65
424.52	335.95
424.89	341.69
425.26	347.39
425.64	352.68
426.01	358.61
426.38	364.67
426.75	370.90
427.13	377.30
427.50	383.99
427.87	390.94
428.24	397.93
428.61	404.62
428.99	411.83
429.36	419.77
429.73	427.33
430.10	434.89
430.47	442.61
430.85	450.59
431.22	459.11
431.59	467.85
431.96	476.39
432.33	485.85
432.70	494.86
433.08	505.54
433.45	515.59
433.82	525.57
434.19	536.70
434.56	547.64
434.93	558.27
435.30	568.81
435.68	580.79
436.05	592.48
436.42	604.20
436.79	614.93
437.16	626.56
437.53	639.01
437.90	651.46
438.27	663.68
438.64	676.88
439.01	688.85
439.38	699.80
439.75	710.43
440.13	722.54
440.50	734.08
440.87	743.29
441.24	753.44
441.61	764.50
441.98	772.70
442.35	782.47
442.72	792.39
443.09	801.80
443.46	807.95
443.83	812.64
444.20	816.54
444.57	822.16
444.94	825.49
445.31	828.90
445.68	831.83
446.05	834.09
446.42	833.80
446.79	833.28
447.16	832.86
447.53	832.51
447.90	828.96
448.27	825.56
448.64	820.18
449.01	816.50
449.37	808.81
449.74	801.88
450.11	792.90
450.48	782.99
450.85	773.10
451.22	764.57
451.59	756.14
451.96	748.53
452.33	737.53
452.70	727.74
453.07	715.93
453.43	704.08
453.80	692.52
454.17	681.44
454.54	671.21
454.91	659.69
455.28	648.77
455.65	638.48
456.02	627.60
456.38	618.86
456.75	607.68
457.12	598.65
457.49	589.52
457.86	580.85
458.23	573.25
458.59	564.87
458.96	556.25
459.33	548.71
459.70	541.01
460.07	535.15
460.43	528.25
460.80	521.76
461.17	516.16
461.54	510.09
461.91	504.39
462.27	498.61
462.64	493.87
463.01	488.48
463.38	483.02
463.74	478.09
464.11	473.72
464.48	469.75
464.85	465.51
465.21	462.26
465.58	458.65
465.95	454.54
466.32	451.29
466.68	448.08
467.05	444.88
467.42	441.75
467.78	438.37
468.15	435.27
468.52	433.00
468.88	429.99
469.25	427.25
469.62	425.07
469.98	422.70
470.35	420.59
470.72	418.68
471.08	416.78
471.45	415.17
471.82	413.36
472.18	411.47
472.55	410.26
472.92	408.71
473.28	407.52
473.65	406.23
474.02	404.98
474.38	403.97
474.75	403.33
475.11	402.51
475.48	402.10
475.85	401.67
476.21	401.42
476.58	401.24
476.94	401.41
477.31	401.48
477.67	401.57
478.04	401.88
478.41	402.31
478.77	402.91
479.14	403.31
479.50	404.10
479.87	405.12
480.23	406.10
480.60	407.06
480.96	408.02
481.33	409.47
481.69	410.92
482.06	412.32
482.42	413.62
482.79	415.25
483.15	417.13
483.52	419.26
483.88	421.30
484.25	423.45
484.61	425.71
484.98	428.13
485.34	430.89
485.71	433.75
486.07	436.81
486.44	439.83
486.80	443.22
487.17	446.71
487.53	450.48
487.90	454.44
488.26	458.77
488.62	463.29
488.99	467.83
489.35	472.56
489.72	477.68
490.08	483.06
490.44	488.51
490.81	494.25
491.17	500.12
491.54	506.42
491.90	512.85
492.26	519.72
492.63	526.92
492.99	534.45
493.36	542.13
493.72	550.20
494.08	558.47
494.45	567.16
494.81	576.19
495.17	585.50
495.54	595.30
495.90	605.51
496.26	615.94
496.63	626.64
496.99	637.74
497.35	649.32
497.72	661.21
498.08	673.44
498.44	685.97
498.80	699.21
499.17	712.75
499.53	726.71
499.89	741.11
500.26	755.69
500.62	770.62
500.98	786.38
501.34	802.14
501.71	818.72
502.07	835.54
502.43	852.84
502.79	870.32
503.16	888.32
503.52	906.50
503.88	925.10
504.24	944.14
504.60	963.38
504.97	983.26
505.33	1003.59
505.69	1024.91
506.05	1046.46
506.41	1067.85
506.78	1089.30
507.14	1111.46
507.50	1134.02
507.86	1156.94
508.22	1180.02
508.59	1202.93
508.95	1226.93
509.31	1251.34
509.67	1276.37
510.03	1301.25
510.39	1326.13
510.75	1351.05
511.12	1376.29
511.48	1401.63
511.84	1426.97
512.20	1452.59
512.56	1479.22
512.92	1505.66
513.28	1531.50
513.64	1557.68
514.00	1584.16
514.37	1611.00
514.73	1637.70
515.09	1663.70
515.45	1690.00
515.81	1716.45
516.17	1742.63
516.53	1768.11
516.89	1793.45
517.25	1819.03
517.61	1844.41
517.97	1870.34
518.33	1895.59
518.69	1920.71
519.05	1946.27
519.41	1971.90
519.77	1997.52
520.13	2021.61
520.49	2045.70
520.85	2070.14
521.21	2094.01
521.57	2118.13
521.93	2141.18
522.29	2164.92
522.65	2188.42
523.01	2211.61
523.37	2234.12
523.73	2257.26
524.09	2280.11
524.45	2302.56
524.81	2324.29
525.17	2345.85
525.53	2366.71
525.89	2387.93
526.25	2408.72
526.61	2427.92
526.97	2447.09
527.33	2466.12
527.68	2484.83
528.04	2503.18
528.40	2520.20
528.76	2537.41
529.12	2554.19
529.48	2571.49
529.84	2586.05
530.20	2601.03
530.56	2615.16
530.91	2629.44
531.27	2643.20
531.63	2656.00
531.99	2668.46
532.35	2680.69
532.71	2692.41
533.07	2704.38
533.42	2714.36
533.78	2724.77
534.14	2736.08
534.50	2746.30
534.86	2756.97
535.21	2765.66
535.57	2774.08
535.93	2782.42
536.29	2789.02
536.65	2795.44
537.00	2800.40
537.36	2806.65
537.72	2811.97
538.08	2816.72
538.44	2820.39
538.79	2823.82
539.15	2825.91
539.51	2827.41
539.87	2827.74
540.22	2826.53
540.58	2825.52
540.94	2825.50
541.29	2824.14
541.65	2821.53
542.01	2818.54
542.37	2813.96
542.72	2810.88
543.08	2806.30
543.44	2801.91
543.79	2797.00
544.15	2791.39
544.51	2786.01
544.87	2779.61
545.22	2772.37
545.58	2765.02
545.94	2757.88
546.29	2749.28
546.65	2740.98
547.01	2732.71
547.36	2724.81
547.72	2717.16
548.07	2707.86
548.43	2697.52
548.79	2686.99
549.14	2676.64
549.50	2666.51
549.86	2655.49
550.21	2642.96
550.57	2631.54
550.92	2618.36
551.28	2605.79
551.64	2593.44
551.99	2580.78
552.35	2567.81
552.70	2554.68
553.06	2542.00
553.41	2528.93
553.77	2515.59
554.13	2502.26
554.48	2487.95
554.84	2472.91
555.19	2458.49
555.55	2443.95
555.90	2429.78
556.26	2415.98
556.61	2401.12
556.97	2385.29
557.32	2369.96
557.68	2354.91
558.03	2339.57
558.39	2325.22
558.74	2311.38
559.10	2295.82
559.45	2280.54
559.81	2265.88
560.16	2250.96
560.52	2235.86
560.87	2220.87
561.23	2205.60
561.58	2190.89
561.94	2175.79
562.29	2160.26
562.64	2144.78
563.00	2129.52
563.35	2114.46
563.71	2099.01
564.06	2083.77
564.42	2068.98
564.77	2054.28
565.12	2039.42
565.48	2024.28
565.83	2009.39
566.19	1994.48
566.54	1979.86
566.89	1964.71
567.25	1949.47
567.60	1934.99
567.96	1919.81
568.31	1903.56
568.66	1888.21
569.02	1873.37
569.37	1859.05
569.72	1845.35
570.08	1831.18
570.43	1816.48
570.78	1801.67
571.14	1786.65
571.49	1771.76
571.84	1757.17
572.20	1741.50
572.55	1726.55
572.90	1711.70
573.26	1696.81
573.61	1681.38
573.96	1666.45
574.31	1651.42
574.67	1636.27
575.02	1620.82
575.37	1605.42
575.72	1590.69
576.08	1575.80
576.43	1560.34
576.78	1545.07
577.13	1530.00
577.49	1515.19
577.84	1500.83
578.19	1485.94
578.54	1471.15
578.90	1456.32
579.25	1441.40
579.60	1427.57
579.95	1413.49
580.30	1399.40
580.66	1385.07
581.01	1370.85
581.36	1356.75
581.71	1343.34
582.06	1329.97
582.42	1316.42
582.77	1303.39
583.12	1290.57
583.47	1277.71
583.82	1264.99
584.17	1251.88
584.53	1238.84
584.88	1226.08
585.23	1213.18
585.58	1200.71
585.93	1188.18
586.28	1176.52
586.63	1164.69
586.98	1152.58
587.34	1140.81
587.69	1128.83
588.04	1117.25
588.39	1105.90
588.74	1094.18
589.09	1082.63
589.44	1070.81
589.79	1059.55
590.14	1048.34
590.49	1037.21
590.84	1026.27
591.19	1015.60
591.54	1005.08
591.89	994.18
592.25	983.63
592.60	972.95
592.95	962.42
593.30	952.21
593.65	941.74
594.00	931.57
594.35	922.21
594.70	912.25
595.05	902.87
595.40	893.28
595.75	883.57
596.10	874.42
596.45	865.31
596.80	856.53
597.15	847.76
597.50	838.99
597.85	830.45
598.19	821.89
598.54	813.34
598.89	805.26
599.24	797.53
599.59	789.62
599.94	782.33
600.29	775.04
600.64	767.63
600.99	760.12
601.34	752.84
601.69	745.07
602.04	738.10
602.39	731.05
602.74	724.19
603.08	717.49
603.43	710.78
603.78	704.00
604.13	697.34
604.48	690.72
604.83	684.32
605.18	677.97
605.53	671.80
605.87	665.58
606.22	659.45
606.57	653.27
606.92	647.00
607.27	640.78
607.62	634.76
607.96	628.96
608.31	623.58
608.66	618.11
609.01	612.90
609.36	607.67
609.70	602.41
610.05	597.16
610.40	592.06
610.75	586.96
611.10	582.06
611.44	577.17
611.79	572.39
612.14	567.52
612.49	562.72
612.83	558.18
613.18	553.69
613.53	549.18
613.88	544.85
614.22	540.83
614.57	536.71
614.92	532.68
615.27	528.78
615.61	524.78
615.96	520.82
616.31	516.89
616.65	513.09
617.00	509.39
617.35	505.72
617.70	502.07
618.04	498.50
618.39	495.05
618.74	491.81
619.08	488.54
619.43	485.38
619.78	482.16
620.12	478.95
620.47	475.93
620.82	472.99
621.16	470.02
621.51	467.14
621.85	464.26
622.20	461.45
622.55	458.59
622.89	455.82
623.24	453.19
623.59	450.60
623.93	448.07
624.28	445.67
624.62	443.50
624.97	441.32
625.32	439.07
625.66	436.76
626.01	434.43
626.35	432.24
626.70	429.97
627.04	427.90
627.39	425.78
627.73	423.76
628.08	421.80
628.43	419.84
628.77	417.77
629.12	415.84
629.46	414.01
629.81	412.30
630.15	410.51
630.50	408.73
630.84	407.02
631.19	405.32
631.53	403.70
631.88	401.89
632.22	400.17
632.57	398.73
632.91	397.25
633.26	395.84
633.60	394.43
633.95	393.12
634.29	391.68
634.64	390.31
634.98	388.80
635.32	387.45
635.67	386.25
636.01	385.05
636.36	383.88
636.70	382.77
637.05	381.53
637.39	380.41
637.73	379.30
638.08	378.23
638.42	377.21
638.77	376.06
639.11	374.89
639.45	373.75
639.80	372.57
640.14	371.46
640.49	370.35
640.83	369.23
641.17	368.16
641.52	367.13
641.86	366.12
642.20	365.25
642.55	364.18
642.89	363.13
643.23	362.16
643.58	361.30
643.92	360.28
644.26	359.34
644.61	358.45
644.95	357.51
645.29	356.51
645.64	355.49
645.98	354.57
646.32	353.75
646.66	352.89
647.01	352.06
647.35	351.29
647.69	350.49
648.04	349.78
648.38	348.99
648.72	348.24
649.06	347.46
649.41	346.65
649.75	345.91
650.09	345.20
650.43	344.42
650.78	343.65
651.12	342.91
651.46	342.19
651.80	341.48
652.14	340.80
652.49	340.20
652.83	339.53
653.17	338.82
653.51	338.16
653.85	337.59
654.20	336.97
654.54	336.24
654.88	335.55
655.22	334.91
655.56	334.25
655.90	333.60
656.25	332.98
656.59	332.38
656.93	331.80
657.27	331.26
657.61	330.68
657.95	330.12
658.29	329.55
658.64	329.00
658.98	328.39
659.32	327.81
659.66	327.24
660.00	326.73
660.34	326.21
660.68	325.63
661.02	324.98
661.36	324.37
661.70	323.82
662.05	323.28
662.39	322.74
662.73	322.27
663.07	321.84
663.41	321.38
663.75	320.86
664.09	320.35
664.43	319.74
664.77	319.22
665.11	318.64
665.45	318.12
665.79	317.63
666.13	317.09
666.47	316.56
666.81	315.99
667.15	315.38
667.49	314.91
667.83	314.49
668.17	314.05
668.51	313.65
668.85	313.24
669.19	312.89
669.53	312.37
669.87	311.83
670.21	311.29
670.55	310.78
670.89	310.39
671.23	309.93
671.57	309.54
671.91	309.18
672.25	308.84
672.58	308.51
672.92	308.05
673.26	307.69
673.60	307.33
673.94	306.96
674.28	306.63
674.62	306.26
674.96	305.81
675.30	305.43
675.64	304.99
675.97	304.52
676.31	304.02
676.65	303.61
676.99	303.29
677.33	302.86
677.67	302.46
678.01	301.97
678.34	301.56
678.68	301.17
679.02	300.71
679.36	300.26
679.70	299.80
680.04	299.41
680.37	299.00
680.71	298.60
681.05	298.24
681.39	297.81
681.73	297.35
682.06	296.93
682.40	296.52
682.74	296.15
683.08	295.85
683.42	295.48
683.75	295.13
684.09	294.65
684.43	294.26
684.77	293.84
685.10	293.46
685.44	293.06
685.78	292.66
686.12	292.26
686.45	291.85
686.79	291.41
687.13	291.00
687.46	290.55
687.80	290.14
688.14	289.66
688.48	289.25
688.81	288.83
689.15	288.48
689.49	288.04
689.82	287.61
690.16	287.08
690.50	286.64
690.83	286.20
691.17	285.77
691.51	285.35
691.84	284.97
692.18	284.56
692.52	284.10
692.85	283.67
693.19	283.30
693.52	282.88
693.86	282.46
694.20	282.06
694.53	281.66
694.87	281.22
695.21	280.79
695.54	280.36
695.88	279.92
696.21	279.44
696.55	279.02
696.88	278.59
697.22	278.18
697.56	277.79
697.89	277.33
698.23	276.92
698.56	276.48
698.90	276.08
699.23	275.63
699.57	275.24
699.90	274.83
700.24	274.38
700.58	274.00
700.91	273.65
701.25	273.41
701.58	273.10
701.92	272.76
702.25	272.42
702.59	272.04
702.92	271.67
703.26	271.28
703.59	270.89
703.93	270.66
704.26	270.29
704.60	269.92
704.93	269.55
705.26	269.18
705.60	268.86
705.93	268.44
706.27	268.16
706.60	267.84
706.94	267.54
707.27	267.16
707.61	266.80
707.94	266.41
708.27	265.88
708.61	265.43
708.94	265.04
709.28	264.68
709.61	264.31
709.94	263.99
710.28	263.67
710.61	263.37
710.95	262.88
711.28	262.67
711.61	262.33
711.95	262.05
712.28	261.70
712.61	261.36
712.95	261.14
713.28	260.86
713.61	260.50
713.95	260.12
714.28	259.82
714.61	259.49
714.95	259.18
715.28	258.87
715.61	258.60
715.95	258.32
716.28	258.02
716.61	257.77
716.95	257.47
717.28	257.18
717.61	256.87
717.94	256.60
718.28	256.20
718.61	255.91
718.94	255.60
719.27	255.34
719.61	255.09
719.94	254.79
720.27	254.44
720.60	254.20
720.94	253.96
721.27	253.71
721.60	253.49
721.93	253.24
722.27	253.04
722.60	252.79
722.93	252.52
723.26	252.29
723.59	252.01
723.93	251.81
724.26	251.59
724.59	251.36
724.92	251.16
725.25	250.98
725.59	250.78
725.92	250.60
726.25	250.37
726.58	250.16
726.91	249.94
727.24	249.74
727.57	249.52
727.91	249.28
728.24	249.10
728.57	248.88
728.90	248.69
729.23	248.43
729.56	248.32
729.89	248.12
730.22	247.91
730.55	247.73
730.89	247.51
731.22	247.31
731.55	247.12
731.88	246.93
732.21	246.70
732.54	246.49
732.87	246.31
733.20	246.13
733.53	245.95
733.86	245.78
734.19	245.59
734.52	245.45
734.85	245.43
735.18	245.23
735.51	245.12
735.84	244.96
736.17	244.86
736.50	244.60
736.83	244.66
737.16	244.50
737.49	244.34
737.82	244.17
738.15	244.04
738.48	243.88
738.81	243.71
739.14	243.53
739.47	243.37
739.80	243.21
740.13	243.08
740.46	242.90
740.79	242.72
741.12	242.56
741.45	242.37
741.78	242.11
742.11	242.01
742.44	241.81
742.77	241.68
743.10	241.49
743.43	241.34
743.75	240.99
744.08	241.12
744.41	240.97
744.74	240.82
745.07	240.65
745.40	240.55
745.73	240.49
746.06	240.37
746.39	240.28
746.71	240.14
747.04	240.00
747.37	239.86
747.70	239.77
748.03	239.66
748.36	239.57
748.68	239.45
749.01	239.28
749.34	239.17
749.67	239.05
750.00	238.98
750.33	239.00
750.65	238.91
750.98	238.54
751.31	238.44
751.64	238.35
751.97	238.33
752.29	238.20
752.62	238.00
752.95	237.89
753.28	237.74
753.60	237.63
753.93	237.56
754.26	237.47
754.59	237.31
754.91	237.19
755.24	237.06
755.57	236.95
755.90	236.83
756.22	236.71
756.55	236.57
756.88	236.42
757.20	236.19
757.53	236.04
757.86	235.93
758.19	235.83
758.51	235.73
758.84	235.56
759.17	235.45
759.49	235.37
759.82	235.37
760.15	235.30
760.47	235.20
760.80	235.06
761.13	234.99
761.45	234.92
761.78	234.84
762.11	234.75
762.43	234.66
762.76	234.59
763.08	234.55
763.41	234.49
763.74	234.41
764.06	234.34
764.39	234.28
764.71	234.20
765.04	234.12
765.37	234.04
765.69	233.96
766.02	233.88
766.34	233.81
766.67	233.66
767.00	233.63
767.32	233.67
767.65	233.71
767.97	233.64
768.30	233.58
768.62	233.51
768.95	233.44
769.27	233.37
769.60	233.34
769.92	233.24
770.25	233.15
770.57	233.07
770.90	233.01
771.22	232.93
771.55	232.89
771.87	232.85
772.20	232.78
772.52	232.88
772.85	233.04
773.17	233.00
773.50	232.93
773.82	232.85
774.15	232.71
774.47	232.54
774.80	232.47
775.12	232.42
775.45	232.37
775.77	232.32
776.09	232.29
776.42	232.23
776.74	232.25
777.07	232.21
777.39	232.18
777.72	232.13
778.04	232.11
778.36	232.05
778.69	232.01
779.01	231.99
779.33	231.79
779.66	231.55
779.98	231.50
780.31	231.48
780.63	231.52
780.95	231.52
781.28	231.50
781.60	231.45
781.92	231.42
782.25	231.38
782.57	231.34
782.89	231.30
783.22	231.26
783.54	231.19
783.86	231.17
784.19	231.12
784.51	231.14
784.83	231.09
785.16	231.06
785.48	231.03
785.80	231.00
786.12	230.98
786.45	230.95
786.77	230.93
787.09	230.88
787.42	230.78
787.74	230.75
788.06	230.73
788.38	230.69
788.71	230.65
789.03	230.62
789.35	230.62
789.67	230.57
789.99	230.55
790.32	230.50
790.64	230.50
790.96	230.63
791.28	230.55
791.61	230.52
791.93	230.50
792.25	230.46
792.57	230.56
792.89	230.52
793.21	230.50
793.54	230.47
793.86	230.43
794.18	230.43
794.50	230.37
794.82	230.35
795.14	230.34
795.47	230.36
795.79	230.34
796.11	230.27
796.43	230.25
796.75	230.23
797.07	230.22
797.39	230.17
797.71	230.01
798.04	229.99
798.36	229.98
798.68	229.95
799.00	229.94
799.32	229.84
799.64	229.85
799.96	229.83
800.28	229.84
800.60	229.83
800.92	229.81
801.24	229.79
801.56	229.78
801.89	229.75
802.21	229.74
802.53	229.68
802.85	229.70
803.17	229.77
803.49	229.72
803.81	229.70
804.13	229.67
804.45	229.63
804.77	229.62
805.09	229.61
805.41	229.58
805.73	229.53
806.05	229.47
806.37	229.44
806.69	229.41
807.01	229.38
807.33	229.37
807.65	229.29
807.97	229.35
808.28	229.31
808.60	229.29
808.92	229.25
809.24	229.35
809.56	229.31
809.88	229.23
810.20	229.23
810.52	229.25
810.84	229.22
811.16	229.19
811.48	229.17
811.80	229.22
812.12	229.20
812.43	229.22
812.75	229.22
813.07	229.18
813.39	229.18
813.71	229.14
814.03	229.11
814.35	229.11
814.67	229.03
814.98	229.00
815.30	229.00
815.62	228.97
815.94	228.83
816.26	228.85
816.58	228.79
816.89	228.80
817.21	228.75
817.53	228.76
817.85	228.76
818.17	228.74
818.48	228.67
818.80	228.69
819.12	228.65
819.44	228.60
819.76	228.59
820.07	228.58
820.39	228.57
820.71	228.57
821.03	228.56
821.34	228.54
821.66	228.55
821.98	228.55
822.30	228.54
822.61	228.64
822.93	228.60
823.25	228.61
823.57	228.57
823.88	228.58
824.20	228.57
824.52	228.58
824.83	228.57
825.15	228.55
825.47	228.52
825.79	228.54
826.10	228.54
826.42	228.51
826.74	228.51
827.05	228.51
827.37	228.51
827.69	228.48
828.00	228.49
828.32	228.47
828.64	228.44
828.95	228.52
829.27	228.46
829.58	228.46
829.90	228.47
830.22	228.48
830.53	228.45
830.85	228.43
831.17	228.37
831.48	228.37
831.80	228.37
832.11	228.35
832.43	228.31
832.75	228.30
833.06	228.40
833.38	228.35
833.69	228.33
834.01	228.33
834.32	228.33
834.64	228.31
834.96	228.30
835.27	228.30
835.59	228.24
835.90	228.20
836.22	228.19
836.53	228.15
836.85	228.12
837.16	228.29
837.48	228.28
837.79	228.34
838.11	228.33
838.42	228.33
838.74	228.36
839.05	228.35
839.37	228.35
839.68	228.22
840.00	228.23
840.31	228.24
840.63	228.23
840.94	228.21
841.26	228.18
841.57	228.17
841.88	228.19
842.20	228.15
842.51	228.11
842.83	228.11
843.14	228.27
843.46	228.27
843.77	228.17
844.08	228.16
844.40	228.09
844.71	228.07
845.03	228.05
845.34	228.02
845.65	228.01
845.97	228.00
846.28	228.03
846.60	228.03
846.91	228.00
847.22	227.99
847.54	228.03
847.85	228.05
848.16	228.03
848.48	227.99
848.79	228.06
849.10	228.09
849.42	228.09
849.73	227.92
850.04	227.91
850.36	227.84
850.67	227.87
850.98	227.88
851.30	227.90
851.61	227.88
851.92	227.88
852.23	227.94
852.55	227.95
852.86	227.95
853.17	227.97
853.49	228.00
853.80	228.02
854.11	228.02
854.42	228.05
854.74	228.03
855.05	228.04
855.36	227.95
855.67	227.95
855.99	227.95
856.30	228.15
856.61	228.15
856.92	228.16
857.23	228.16
857.55	228.15
857.86	228.13
858.17	228.17
858.48	228.13
858.79	228.09
859.11	228.10
859.42	228.08
859.73	228.06
860.04	228.04
860.35	228.00
860.66	227.95
860.98	227.93
861.29	227.96
861.60	227.96
861.91	228.00
862.22	227.96
862.53	227.92
862.84	227.72
863.16	227.76
863.47	227.72
863.78	227.69
864.09	227.70
864.40	227.71
864.71	227.71
865.02	227.73
865.33	227.71
865.64	227.68
865.95	227.68
866.27	227.79
866.58	227.77
866.89	227.79
867.20	227.79
867.51	227.76
867.82	227.73
868.13	227.77
868.44	227.73
868.75	227.78
869.06	227.80
869.37	227.83
869.68	227.78
869.99	227.82
870.30	227.82
870.61	227.84
870.92	227.81
871.23	227.78
871.54	227.80
871.85	227.84
872.16	227.86
872.47	227.84
872.78	227.75
873.09	227.77
873.40	227.74
873.71	227.76
874.02	227.75
874.33	227.75
874.64	227.71
874.95	227.74
875.26	227.69
875.56	227.69
875.87	227.65
876.18	227.64
876.49	227.80
876.80	227.78
877.11	227.75
877.42	227.75
877.73	227.75
878.04	227.71
878.35	227.72
878.66	227.70
878.96	227.70
879.27	227.68
879.58	227.66
879.89	227.65
880.20	227.70
880.51	227.70
880.82	227.70
881.12	227.70
881.43	227.66
881.74	227.65
882.05	227.63
882.36	227.65
882.67	227.66
882.97	227.47
883.28	227.45
883.59	227.44
883.90	227.46
884.21	227.48
884.51	227.48
884.82	227.44
885.13	227.45
885.44	227.44
885.74	227.44
886.05	227.44
886.36	227.45
886.67	227.36
886.98	227.45
887.28	227.47
887.59	227.46
887.90	227.46
888.20	227.45
888.51	227.49
888.82	227.46
889.13	227.47
889.43	227.63
889.74	227.63
890.05	227.62
890.35	227.60
890.66	227.57
890.97	227.55
891.28	227.53
891.58	227.53
891.89	227.52
892.20	227.51
892.50	227.49
892.81	227.47
893.12	227.48
893.42	227.39
893.73	227.39
894.04	227.39
894.34	227.42
894.65	227.42
894.95	227.40
895.26	227.42
895.57	227.49
895.87	227.31
896.18	227.34
896.48	227.37
896.79	227.37
897.10	227.40
897.40	227.41
897.71	227.44
898.01	227.43
898.32	227.45
898.63	227.44
898.93	227.45
899.24	227.46
899.54	227.45
899.85	227.44
900.15	227.43
900.46	227.43
900.76	227.44
901.07	227.44
901.38	227.42
901.68	227.43
901.99	227.34
902.29	227.35
902.60	227.33
902.90	227.31
903.21	227.31
903.51	227.29
903.82	227.32
904.12	227.32
904.43	227.34
904.73	227.33
905.03	227.35
905.34	227.52
905.64	227.51
905.95	227.51
906.25	227.52
906.56	227.50
906.86	227.50
907.17	227.48
907.47	227.49
907.77	227.49
908.08	227.46
908.38	227.46
908.69	227.48
908.99	227.52
909.30	227.52
909.60	227.51
909.90	227.52
910.21	227.47
910.51	227.44
910.81	227.43
911.12	227.45
911.42	227.43
911.73	227.25
912.03	227.27
912.33	227.31
912.64	227.28
912.94	227.28
913.24	227.25
913.55	227.24
913.85	227.22
914.15	227.25
914.46	227.27
914.76	227.25
915.06	227.23
915.37	227.19
915.67	227.17
915.97	227.18
916.27	227.14
916.58	227.14
916.88	227.15
917.18	227.14
917.49	227.25
917.79	227.24
918.09	227.26
918.39	227.30
918.70	227.28
919.00	227.31
919.30	227.39
919.60	227.39
919.91	227.36
920.21	227.38
920.51	227.34
920.81	227.32
921.12	227.36
921.42	227.36
921.72	227.37
922.02	227.39
922.32	227.42
922.63	227.44
922.93	227.54
923.23	227.54
923.53	227.53
923.83	227.42
924.13	227.45
924.44	227.46
924.74	227.48
925.04	227.54
925.34	227.53
925.64	227.46
925.94	227.46
926.24	227.56
926.55	227.54
926.85	227.57
927.15	227.57
927.45	227.56
927.75	227.54
928.05	227.56
928.35	227.54
928.65	227.56
928.95	227.57
929.26	227.48
929.56	227.52
929.86	227.53
930.16	227.52
930.46	227.49
930.76	227.49
931.06	227.41
931.36	227.34
931.66	227.36
931.96	227.38
932.26	227.40
932.56	227.32
932.86	227.34
933.16	227.34
933.46	227.34
933.76	227.31
934.06	227.35
934.36	227.40
934.66	227.40
934.96	227.38
935.26	227.38
935.56	227.40
935.86	227.36
936.16	227.33
936.46	227.32
936.76	227.30
937.06	227.27
937.36	227.29
937.66	227.31
937.96	227.29
938.26	227.25
938.56	227.23
938.86	227.24
939.16	227.28
939.46	227.30
939.76	227.31
940.06	227.31
940.35	227.29
940.65	227.20
940.95	227.21
941.25	227.17
941.55	227.13
941.85	227.10
942.15	227.14
942.45	227.18
942.75	227.19
943.04	227.21
943.34	227.26
943.64	227.24
943.94	227.22
944.24	227.22
944.54	227.24
944.84	227.23
945.13	227.20
945.43	227.17
945.73	227.16
946.03	227.14
946.33	227.12
946.62	227.10
946.92	227.09
947.22	227.11
947.52	227.12
947.82	227.16
948.11	227.14
948.41	227.10
948.71	227.06
949.01	227.07
949.31	227.05
949.60	227.03
949.90	227.05
950.20	227.04
950.50	227.03
950.79	227.01
951.09	227.04
951.39	227.05
951.69	227.03
951.98	227.07
952.28	227.08
952.58	227.08
952.87	227.08
953.17	227.12
953.47	227.09
953.76	227.09
954.06	227.06
954.36	227.05
954.66	227.04
954.95	227.09
955.25	227.09
955.55	227.10
955.84	227.07
956.14	227.09
956.44	227.11
956.73	227.08
957.03	227.10
957.32	227.10
957.62	227.09
957.92	227.12
958.21	227.09
958.51	227.30
958.81	227.33
959.10	227.35
959.40	227.38
959.69	227.40
959.99	227.43
960.29	227.44
960.58	227.43
960.88	227.50
961.17	227.47
961.47	227.49
961.76	227.48
962.06	227.51
962.36	227.50
962.65	227.51
962.95	227.53
963.24	227.50
963.54	227.50
963.83	227.52
964.13	227.51
964.42	227.49
964.72	227.34
965.01	227.34
965.31	227.32
965.60	227.26
965.90	227.38
966.19	227.33
966.49	227.33
966.78	227.34
967.08	227.32
967.37	227.32
967.67	227.28
967.96	227.31
968.26	227.31
968.55	227.33
968.85	227.32
969.14	227.32
969.43	227.33
969.73	227.30
970.02	227.30
970.32	227.29
970.61	227.27
970.91	227.22
971.20	227.19
971.49	227.19
971.79	227.22
972.08	227.08
972.38	227.11
972.67	227.10
972.96	227.13
973.26	227.09
973.55	227.15
973.85	227.13
974.14	227.12
974.43	227.12
974.73	227.08
975.02	227.07
975.31	227.06
975.61	227.05
975.90	227.04
976.19	227.02
976.49	227.04
976.78	227.04
977.07	227.03
977.37	227.05
977.66	227.07
977.95	227.04
978.24	227.06
978.54	227.10
978.83	227.08
979.12	227.08
979.42	227.08
979.71	227.05
980.00	227.06
980.29	227.07
980.59	227.03
980.88	227.07
981.17	227.08
981.46	227.09
981.76	227.09
982.05	227.15
982.34	227.16
982.63	227.16
982.93	227.17
983.22	227.22
983.51	227.22
983.80	227.24
984.09	227.27
984.39	227.26
984.68	227.23
984.97	227.24
985.26	227.22
985.55	227.24
985.85	227.19
986.14	227.22
986.43	227.24
986.72	227.24
987.01	227.18
987.30	227.17
987.59	227.16
987.89	227.17
988.18	227.11
988.47	227.10
988.76	227.08
989.05	227.06
989.34	227.03
989.63	227.06
989.92	227.03
990.22	227.02
990.51	227.01
990.80	227.00
991.09	227.01
991.38	227.02
991.67	227.00
991.96	227.00
992.25	227.00
992.54	226.96
992.83	226.97
993.12	226.97
993.41	227.00
993.70	227.07
993.99	227.10
994.28	227.13
994.58	227.15
994.87	227.13
995.16	227.13
995.45	227.12
995.74	227.05
996.03	227.07
996.32	227.10
996.61	227.14
996.90	227.13
997.19	227.12
997.48	227.11
997.77	227.10
998.06	227.10
998.34	227.08
998.63	227.08
998.92	227.09
999.21	227.12
999.50	227.12
999.79	227.05
1000.08	227.04
1000.37	227.04
1000.66	227.02
1000.95	227.07
1001.24	227.08
1001.53	227.10
1001.82	227.11
1002.11	227.07
1002.40	227.07
1002.68	227.11
1002.97	227.24
1003.26	227.22
1003.55	227.19
1003.84	227.22
1004.13	227.29
1004.42	227.30
1004.71	227.30
1004.99	227.29
1005.28	227.32
1005.57	227.32
1005.86	227.30
1006.15	227.29
1006.44	227.26
1006.72	227.28
1007.01	227.24
1007.30	227.23
1007.59	227.22
1007.88	227.22
1008.17	227.24
1008.45	227.19
1008.74	227.12
1009.03	227.05
1009.32	227.06
1009.60	227.05
1009.89	227.03
1010.18	226.96
1010.47	226.94
1010.76	226.96
1011.04	226.95
1011.33	226.95
1011.62	226.95
1011.91	226.97
1012.19	226.99
1012.48	227.00
1012.77	226.99
1013.05	227.06
1013.34	227.08
1013.63	227.06
1013.92	227.08
1014.20	227.07
1014.49	227.08
1014.78	227.09
1015.06	227.03
1015.35	227.04
1015.64	227.07
1015.92	227.11
1016.21	227.12
1016.50	227.12
1016.78	227.14
1017.07	227.16
1017.36	227.13
1017.64	227.11
1017.93	227.12
1018.22	227.10
1018.50	227.10
1018.79	227.10
1019.08	227.03
1019.36	227.03
1019.65	227.02
1019.93	227.07
1020.22	227.09
1020.51	227.18
1020.79	227.18
1021.08	226.87
1021.36	226.76
1021.65	227.13
1021.94	226.81
1022.22	227.14
1022.51	226.74
1022.79	227.99
1023.08	227.33
1023.36	229.15
1023.65	226.74
>>>>>End Processed Spectral Data<<<<<
