SpectraSuite Data File
++++++++++++++++++++++++++++++++++++
Date: Tue Oct 06 16:43:16 EDT 2015
User: lab3
Dark Spectrum Present: No
Reference Spectrum Present: No
Number of Sampled Component Spectra: 1
Spectrometers: USB2E7196
Integration Time (usec): 66000 (USB2E7196)
Spectra Averaged: 1000 (USB2E7196)
Boxcar Smoothing: 10 (USB2E7196)
Correct for Electrical Dark: No (USB2E7196)
Strobe/Lamp Enabled: No (USB2E7196)
Correct for Detector Non-linearity: No (USB2E7196)
Correct for Stray Light: No (USB2E7196)
Number of Pixels in Processed Spectrum: 2048
>>>>>Begin Processed Spectral Data<<<<<
339.09	0.00
339.48	215.12
339.86	216.64
340.24	217.95
340.63	219.66
341.01	223.56
341.39	222.10
341.78	223.74
342.16	225.08
342.54	225.27
342.93	213.72
343.31	224.52
343.69	225.06
344.07	225.53
344.46	225.98
344.84	226.38
345.22	226.58
345.60	226.86
345.99	227.07
346.37	227.20
346.75	227.32
347.13	227.40
347.52	227.49
347.90	227.61
348.28	227.67
348.66	227.75
349.05	227.74
349.43	227.81
349.81	227.88
350.19	227.93
350.57	228.03
350.96	228.14
351.34	228.25
351.72	228.36
352.10	228.47
352.48	228.54
352.87	228.59
353.25	228.66
353.63	228.71
354.01	228.77
354.39	228.86
354.77	228.94
355.15	229.07
355.54	229.11
355.92	229.11
356.30	229.18
356.68	229.35
357.06	229.43
357.44	229.47
357.82	229.51
358.20	229.73
358.58	229.77
358.97	229.82
359.35	229.90
359.73	229.99
360.11	230.03
360.49	230.10
360.87	230.15
361.25	230.21
361.63	230.30
362.01	230.35
362.39	230.37
362.77	230.42
363.15	230.43
363.53	230.45
363.91	230.48
364.29	230.50
364.67	230.36
365.05	230.38
365.43	230.41
365.81	230.46
366.19	230.40
366.57	230.48
366.95	230.48
367.33	230.44
367.71	230.43
368.09	230.47
368.47	230.46
368.85	230.43
369.23	230.45
369.61	230.39
369.99	230.43
370.37	230.45
370.75	230.55
371.13	230.52
371.51	230.47
371.89	230.47
372.27	230.45
372.65	230.45
373.03	230.41
373.41	230.37
373.78	230.31
374.16	230.19
374.54	230.10
374.92	230.04
375.30	230.01
375.68	229.94
376.06	229.89
376.44	229.83
376.82	229.80
377.19	229.76
377.57	229.71
377.95	229.60
378.33	229.53
378.71	229.33
379.09	229.30
379.47	229.28
379.84	229.22
380.22	229.14
380.60	229.06
380.98	229.02
381.36	228.97
381.73	228.91
382.11	228.90
382.49	228.86
382.87	228.82
383.25	228.79
383.62	228.95
384.00	228.89
384.38	228.86
384.76	228.86
385.13	228.87
385.51	228.83
385.89	228.78
386.27	228.76
386.64	228.74
387.02	228.70
387.40	228.65
387.78	228.64
388.15	228.64
388.53	228.61
388.91	228.58
389.29	228.55
389.66	228.56
390.04	228.51
390.42	228.52
390.79	228.50
391.17	228.48
391.55	228.28
391.92	228.27
392.30	228.29
392.68	228.24
393.05	228.23
393.43	228.24
393.81	228.26
394.18	228.23
394.56	228.24
394.94	228.30
395.31	228.31
395.69	228.38
396.06	228.42
396.44	228.46
396.82	228.50
397.19	228.63
397.57	228.64
397.95	228.72
398.32	228.72
398.70	228.82
399.07	228.92
399.45	228.98
399.82	229.05
400.20	229.10
400.58	229.20
400.95	229.22
401.33	229.36
401.70	229.58
402.08	229.75
402.45	229.88
402.83	230.04
403.20	230.20
403.58	230.34
403.95	230.55
404.33	230.77
404.71	230.98
405.08	231.29
405.46	231.54
405.83	231.82
406.21	232.11
406.58	232.42
406.96	232.74
407.33	233.11
407.70	233.53
408.08	234.11
408.45	234.60
408.83	235.16
409.20	235.66
409.58	236.11
409.95	236.72
410.33	237.41
410.70	238.07
411.08	238.82
411.45	239.62
411.82	240.45
412.20	241.39
412.57	242.50
412.95	243.38
413.32	244.53
413.69	245.71
414.07	246.97
414.44	248.34
414.82	249.74
415.19	251.39
415.56	253.06
415.94	254.80
416.31	256.76
416.68	258.71
417.06	260.98
417.43	263.11
417.81	265.54
418.18	268.03
418.55	270.74
418.93	273.58
419.30	276.53
419.67	279.68
420.04	282.91
420.42	286.29
420.79	290.18
421.16	294.11
421.54	298.09
421.91	302.26
422.28	306.59
422.66	311.26
423.03	315.70
423.40	320.35
423.77	325.32
424.15	330.41
424.52	335.68
424.89	341.40
425.26	347.08
425.64	352.37
426.01	358.28
426.38	364.32
426.75	370.54
427.13	376.88
427.50	383.54
427.87	390.45
428.24	397.41
428.61	404.08
428.99	411.27
429.36	419.17
429.73	426.72
430.10	434.22
430.47	441.91
430.85	449.87
431.22	458.33
431.59	467.02
431.96	475.50
432.33	484.95
432.70	493.90
433.08	504.51
433.45	514.50
433.82	524.39
434.19	535.46
434.56	546.36
434.93	556.94
435.30	567.44
435.68	579.33
436.05	590.94
436.42	602.58
436.79	613.22
437.16	624.78
437.53	637.11
437.90	649.48
438.27	661.61
438.64	674.71
439.01	686.58
439.38	697.54
439.75	708.11
440.13	720.14
440.50	731.61
440.87	740.78
441.24	750.88
441.61	761.92
441.98	770.10
442.35	779.81
442.72	789.72
443.09	799.11
443.46	805.23
443.83	809.95
444.20	813.87
444.57	819.50
444.94	822.86
445.31	826.36
445.68	829.37
446.05	831.67
446.42	831.45
446.79	831.01
447.16	830.66
447.53	830.37
447.90	826.92
448.27	823.62
448.64	818.35
449.01	814.74
449.37	807.18
449.74	800.30
450.11	791.40
450.48	781.62
450.85	771.81
451.22	763.40
451.59	755.07
451.96	747.55
452.33	736.62
452.70	726.91
453.07	715.11
453.43	703.36
453.80	691.86
454.17	680.86
454.54	670.71
454.91	659.23
455.28	648.38
455.65	638.14
456.02	627.31
456.38	618.59
456.75	607.44
457.12	598.43
457.49	589.36
457.86	580.74
458.23	573.14
458.59	564.80
458.96	556.22
459.33	548.70
459.70	541.01
460.07	535.16
460.43	528.28
460.80	521.83
461.17	516.20
461.54	510.16
461.91	504.47
462.27	498.68
462.64	493.94
463.01	488.56
463.38	483.10
463.74	478.18
464.11	473.83
464.48	469.87
464.85	465.64
465.21	462.38
465.58	458.77
465.95	454.67
466.32	451.39
466.68	448.19
467.05	444.94
467.42	441.80
467.78	438.45
468.15	435.34
468.52	433.07
468.88	430.07
469.25	427.31
469.62	425.13
469.98	422.77
470.35	420.66
470.72	418.74
471.08	416.83
471.45	415.22
471.82	413.40
472.18	411.51
472.55	410.28
472.92	408.75
473.28	407.57
473.65	406.28
474.02	405.07
474.38	404.04
474.75	403.43
475.11	402.60
475.48	402.21
475.85	401.78
476.21	401.51
476.58	401.33
476.94	401.50
477.31	401.55
477.67	401.62
478.04	401.92
478.41	402.36
478.77	402.96
479.14	403.34
479.50	404.12
479.87	405.12
480.23	406.09
480.60	407.04
480.96	407.99
481.33	409.44
481.69	410.85
482.06	412.26
482.42	413.56
482.79	415.19
483.15	417.05
483.52	419.17
483.88	421.19
484.25	423.34
484.61	425.59
484.98	428.03
485.34	430.76
485.71	433.62
486.07	436.66
486.44	439.67
486.80	443.06
487.17	446.53
487.53	450.30
487.90	454.23
488.26	458.53
488.62	463.03
488.99	467.55
489.35	472.28
489.72	477.37
490.08	482.71
490.44	488.17
490.81	493.90
491.17	499.75
491.54	506.05
491.90	512.50
492.26	519.36
492.63	526.54
492.99	534.05
493.36	541.70
493.72	549.77
494.08	558.03
494.45	566.68
494.81	575.71
495.17	584.99
495.54	594.79
495.90	605.02
496.26	615.43
496.63	626.11
496.99	637.19
497.35	648.76
497.72	660.65
498.08	672.85
498.44	685.37
498.80	698.61
499.17	712.12
499.53	726.08
499.89	740.48
500.26	755.08
500.62	770.01
500.98	785.79
501.34	801.57
501.71	818.17
502.07	835.03
502.43	852.34
502.79	869.85
503.16	887.90
503.52	906.12
503.88	924.73
504.24	943.81
504.60	963.10
504.97	983.06
505.33	1003.46
505.69	1024.89
506.05	1046.50
506.41	1068.00
506.78	1089.61
507.14	1111.80
507.50	1134.49
507.86	1157.48
508.22	1180.70
508.59	1203.78
508.95	1227.89
509.31	1252.45
509.67	1277.67
510.03	1302.77
510.39	1327.77
510.75	1352.82
511.12	1378.22
511.48	1403.83
511.84	1429.38
512.20	1455.24
512.56	1482.05
512.92	1508.72
513.28	1534.75
513.64	1561.17
514.00	1587.91
514.37	1614.94
514.73	1641.95
515.09	1668.24
515.45	1694.88
515.81	1721.64
516.17	1748.10
516.53	1773.88
516.89	1799.50
517.25	1825.34
517.61	1850.98
517.97	1877.28
518.33	1902.89
518.69	1928.42
519.05	1954.31
519.41	1980.33
519.77	2006.35
520.13	2030.85
520.49	2055.34
520.85	2080.24
521.21	2104.50
521.57	2129.04
521.93	2152.57
522.29	2176.69
522.65	2200.59
523.01	2224.21
523.37	2247.17
523.73	2270.84
524.09	2294.12
524.45	2317.09
524.81	2339.38
525.17	2361.47
525.53	2382.78
525.89	2404.50
526.25	2425.78
526.61	2445.46
526.97	2465.13
527.33	2484.66
527.68	2503.88
528.04	2522.76
528.40	2540.31
528.76	2558.11
529.12	2575.41
529.48	2593.30
529.84	2608.44
530.20	2623.98
530.56	2638.64
530.91	2653.48
531.27	2667.67
531.63	2681.05
531.99	2694.01
532.35	2706.78
532.71	2719.06
533.07	2731.71
533.42	2742.52
533.78	2753.45
534.14	2765.35
534.50	2776.11
534.86	2787.37
535.21	2796.68
535.57	2805.65
535.93	2814.53
536.29	2821.67
536.65	2828.67
537.00	2834.13
537.36	2840.88
537.72	2846.76
538.08	2852.11
538.44	2856.25
538.79	2860.23
539.15	2862.87
539.51	2864.89
539.87	2865.66
540.22	2864.91
540.58	2864.27
540.94	2864.44
541.29	2863.55
541.65	2861.37
542.01	2858.81
542.37	2854.63
542.72	2851.94
543.08	2847.75
543.44	2843.71
543.79	2839.17
544.15	2833.90
544.51	2828.91
544.87	2822.90
545.22	2815.96
545.58	2808.87
545.94	2801.99
546.29	2793.70
546.65	2785.66
547.01	2777.65
547.36	2770.10
547.72	2762.74
548.07	2753.74
548.43	2743.59
548.79	2733.27
549.14	2723.18
549.50	2713.26
549.86	2702.47
550.21	2690.12
550.57	2678.82
550.92	2665.82
551.28	2653.32
551.64	2641.15
551.99	2628.62
552.35	2615.75
552.70	2602.74
553.06	2590.18
553.41	2577.25
553.77	2563.99
554.13	2550.78
554.48	2536.58
554.84	2521.49
555.19	2507.07
555.55	2492.53
555.90	2478.46
556.26	2464.63
556.61	2449.77
556.97	2433.93
557.32	2418.54
557.68	2403.42
558.03	2388.07
558.39	2373.65
558.74	2359.80
559.10	2344.14
559.45	2328.73
559.81	2314.01
560.16	2298.99
560.52	2283.80
560.87	2268.74
561.23	2253.35
561.58	2238.50
561.94	2223.24
562.29	2207.58
562.64	2192.00
563.00	2176.58
563.35	2161.34
563.71	2145.78
564.06	2130.31
564.42	2115.36
564.77	2100.53
565.12	2085.42
565.48	2070.12
565.83	2055.05
566.19	2040.00
566.54	2025.23
566.89	2009.88
567.25	1994.42
567.60	1979.77
567.96	1964.39
568.31	1947.86
568.66	1932.27
569.02	1917.22
569.37	1902.72
569.72	1888.77
570.08	1874.39
570.43	1859.46
570.78	1844.38
571.14	1829.13
571.49	1813.95
571.84	1799.07
572.20	1783.05
572.55	1767.85
572.90	1752.71
573.26	1737.57
573.61	1721.77
573.96	1706.46
574.31	1691.15
574.67	1675.66
575.02	1659.90
575.37	1644.16
575.72	1629.15
576.08	1613.97
576.43	1598.15
576.78	1582.52
577.13	1567.10
577.49	1551.94
577.84	1537.24
578.19	1522.05
578.54	1506.91
578.90	1491.77
579.25	1476.51
579.60	1462.41
579.95	1448.04
580.30	1433.62
580.66	1418.94
581.01	1404.35
581.36	1389.90
581.71	1376.19
582.06	1362.50
582.42	1348.62
582.77	1335.29
583.12	1322.13
583.47	1308.89
583.82	1295.88
584.17	1282.41
584.53	1269.05
584.88	1255.98
585.23	1242.75
585.58	1229.91
585.93	1217.03
586.28	1205.06
586.63	1192.94
586.98	1180.44
587.34	1168.33
587.69	1156.04
588.04	1144.07
588.39	1132.43
588.74	1120.43
589.09	1108.53
589.44	1096.38
589.79	1084.81
590.14	1073.23
590.49	1061.77
590.84	1050.57
591.19	1039.57
591.54	1028.75
591.89	1017.54
592.25	1006.63
592.60	995.66
592.95	984.86
593.30	974.37
593.65	963.58
594.00	953.11
594.35	943.47
594.70	933.18
595.05	923.52
595.40	913.66
595.75	903.66
596.10	894.27
596.45	884.83
596.80	875.77
597.15	866.68
597.50	857.67
597.85	848.88
598.19	840.03
598.54	831.20
598.89	822.84
599.24	814.89
599.59	806.76
599.94	799.20
600.29	791.64
600.64	783.98
600.99	776.23
601.34	768.70
601.69	760.70
602.04	753.54
602.39	746.25
602.74	739.21
603.08	732.29
603.43	725.32
603.78	718.35
604.13	711.47
604.48	704.63
604.83	697.97
605.18	691.39
605.53	684.99
605.87	678.56
606.22	672.23
606.57	665.83
606.92	659.38
607.27	652.97
607.62	646.76
607.96	640.76
608.31	635.18
608.66	629.51
609.01	624.11
609.36	618.67
609.70	613.19
610.05	607.73
610.40	602.43
610.75	597.13
611.10	592.04
611.44	586.95
611.79	582.02
612.14	576.95
612.49	571.99
612.83	567.29
613.18	562.64
613.53	557.99
613.88	553.47
614.22	549.27
614.57	544.98
614.92	540.77
615.27	536.72
615.61	532.58
615.96	528.49
616.31	524.39
616.65	520.45
617.00	516.62
617.35	512.82
617.70	509.05
618.04	505.39
618.39	501.81
618.74	498.46
619.08	495.06
619.43	491.79
619.78	488.47
620.12	485.12
620.47	481.98
620.82	478.91
621.16	475.86
621.51	472.86
621.85	469.88
622.20	466.96
622.55	464.02
622.89	461.11
623.24	458.38
623.59	455.70
623.93	453.08
624.28	450.60
624.62	448.32
624.97	446.06
625.32	443.68
625.66	441.30
626.01	438.85
626.35	436.59
626.70	434.23
627.04	432.07
627.39	429.89
627.73	427.77
628.08	425.72
628.43	423.68
628.77	421.53
629.12	419.54
629.46	417.62
629.81	415.83
630.15	413.97
630.50	412.11
630.84	410.34
631.19	408.58
631.53	406.89
631.88	405.03
632.22	403.27
632.57	401.77
632.91	400.22
633.26	398.77
633.60	397.31
633.95	395.97
634.29	394.48
634.64	393.06
634.98	391.50
635.32	390.10
635.67	388.83
636.01	387.57
636.36	386.36
636.70	385.23
637.05	383.95
637.39	382.81
637.73	381.64
638.08	380.53
638.42	379.48
638.77	378.30
639.11	377.09
639.45	375.90
639.80	374.67
640.14	373.52
640.49	372.35
640.83	371.19
641.17	370.07
641.52	368.98
641.86	367.93
642.20	367.04
642.55	365.96
642.89	364.90
643.23	363.90
643.58	363.02
643.92	361.97
644.26	361.01
644.61	360.09
644.95	359.13
645.29	358.11
645.64	357.06
645.98	356.13
646.32	355.30
646.66	354.42
647.01	353.57
647.35	352.79
647.69	351.97
648.04	351.25
648.38	350.45
648.72	349.70
649.06	348.92
649.41	348.11
649.75	347.34
650.09	346.61
650.43	345.84
650.78	345.05
651.12	344.30
651.46	343.54
651.80	342.81
652.14	342.14
652.49	341.51
652.83	340.83
653.17	340.11
653.51	339.42
653.85	338.83
654.20	338.19
654.54	337.47
654.88	336.78
655.22	336.12
655.56	335.45
655.90	334.80
656.25	334.16
656.59	333.54
656.93	332.96
657.27	332.44
657.61	331.84
657.95	331.27
658.29	330.69
658.64	330.16
658.98	329.56
659.32	328.96
659.66	328.40
660.00	327.89
660.34	327.37
660.68	326.78
661.02	326.13
661.36	325.54
661.70	324.98
662.05	324.43
662.39	323.89
662.73	323.42
663.07	323.01
663.41	322.56
663.75	322.03
664.09	321.54
664.43	320.91
664.77	320.38
665.11	319.80
665.45	319.30
665.79	318.80
666.13	318.27
666.47	317.73
666.81	317.16
667.15	316.54
667.49	316.07
667.83	315.65
668.17	315.22
668.51	314.80
668.85	314.41
669.19	314.06
669.53	313.54
669.87	313.00
670.21	312.44
670.55	311.92
670.89	311.53
671.23	311.05
671.57	310.65
671.91	310.29
672.25	309.95
672.58	309.59
672.92	309.14
673.26	308.79
673.60	308.42
673.94	308.06
674.28	307.73
674.62	307.35
674.96	306.92
675.30	306.52
675.64	306.09
675.97	305.60
676.31	305.12
676.65	304.70
676.99	304.36
677.33	303.94
677.67	303.54
678.01	303.06
678.34	302.65
678.68	302.26
679.02	301.80
679.36	301.35
679.70	300.89
680.04	300.50
680.37	300.08
680.71	299.70
681.05	299.33
681.39	298.91
681.73	298.44
682.06	298.01
682.40	297.61
682.74	297.25
683.08	296.95
683.42	296.58
683.75	296.23
684.09	295.75
684.43	295.37
684.77	294.95
685.10	294.56
685.44	294.18
685.78	293.77
686.12	293.37
686.45	292.96
686.79	292.52
687.13	292.12
687.46	291.67
687.80	291.25
688.14	290.76
688.48	290.33
688.81	289.92
689.15	289.57
689.49	289.13
689.82	288.68
690.16	288.13
690.50	287.68
690.83	287.23
691.17	286.78
691.51	286.34
691.84	285.95
692.18	285.51
692.52	285.05
692.85	284.60
693.19	284.24
693.52	283.81
693.86	283.37
694.20	282.95
694.53	282.53
694.87	282.06
695.21	281.64
695.54	281.20
695.88	280.75
696.21	280.25
696.55	279.82
696.88	279.39
697.22	278.99
697.56	278.59
697.89	278.14
698.23	277.75
698.56	277.31
698.90	276.92
699.23	276.48
699.57	276.08
699.90	275.67
700.24	275.22
700.58	274.84
700.91	274.48
701.25	274.24
701.58	273.94
701.92	273.61
702.25	273.24
702.59	272.85
702.92	272.47
703.26	272.09
703.59	271.70
703.93	271.45
704.26	271.08
704.60	270.68
704.93	270.29
705.26	269.88
705.60	269.55
705.93	269.13
706.27	268.83
706.60	268.51
706.94	268.21
707.27	267.79
707.61	267.42
707.94	267.01
708.27	266.48
708.61	266.05
708.94	265.65
709.28	265.28
709.61	264.92
709.94	264.61
710.28	264.28
710.61	263.97
710.95	263.48
711.28	263.26
711.61	262.93
711.95	262.64
712.28	262.29
712.61	261.93
712.95	261.70
713.28	261.43
713.61	261.07
713.95	260.70
714.28	260.41
714.61	260.07
714.95	259.77
715.28	259.45
715.61	259.16
715.95	258.87
716.28	258.57
716.61	258.31
716.95	257.98
717.28	257.68
717.61	257.37
717.94	257.09
718.28	256.68
718.61	256.40
718.94	256.09
719.27	255.84
719.61	255.59
719.94	255.28
720.27	254.92
720.60	254.66
720.94	254.39
721.27	254.14
721.60	253.91
721.93	253.65
722.27	253.44
722.60	253.19
722.93	252.92
723.26	252.70
723.59	252.43
723.93	252.23
724.26	252.00
724.59	251.75
724.92	251.53
725.25	251.37
725.59	251.15
725.92	250.96
726.25	250.73
726.58	250.52
726.91	250.29
727.24	250.10
727.57	249.88
727.91	249.63
728.24	249.45
728.57	249.23
728.90	249.05
729.23	248.79
729.56	248.66
729.89	248.47
730.22	248.26
730.55	248.05
730.89	247.85
731.22	247.65
731.55	247.47
731.88	247.28
732.21	247.07
732.54	246.86
732.87	246.67
733.20	246.50
733.53	246.31
733.86	246.15
734.19	245.94
734.52	245.81
734.85	245.77
735.18	245.57
735.51	245.46
735.84	245.30
736.17	245.18
736.50	244.92
736.83	244.96
737.16	244.79
737.49	244.63
737.82	244.45
738.15	244.29
738.48	244.13
738.81	243.96
739.14	243.77
739.47	243.61
739.80	243.45
740.13	243.30
740.46	243.11
740.79	242.92
741.12	242.77
741.45	242.58
741.78	242.33
742.11	242.21
742.44	242.02
742.77	241.89
743.10	241.72
743.43	241.57
743.75	241.24
744.08	241.37
744.41	241.22
744.74	241.08
745.07	240.91
745.40	240.82
745.73	240.74
746.06	240.62
746.39	240.51
746.71	240.37
747.04	240.23
747.37	240.10
747.70	240.00
748.03	239.88
748.36	239.79
748.68	239.66
749.01	239.50
749.34	239.37
749.67	239.25
750.00	239.14
750.33	239.15
750.65	239.05
750.98	238.66
751.31	238.56
751.64	238.47
751.97	238.47
752.29	238.33
752.62	238.14
752.95	238.03
753.28	237.90
753.60	237.79
753.93	237.71
754.26	237.61
754.59	237.44
754.91	237.32
755.24	237.19
755.57	237.08
755.90	236.97
756.22	236.85
756.55	236.72
756.88	236.57
757.20	236.35
757.53	236.20
757.86	236.09
758.19	236.00
758.51	235.88
758.84	235.69
759.17	235.57
759.49	235.50
759.82	235.48
760.15	235.41
760.47	235.31
760.80	235.18
761.13	235.11
761.45	235.04
761.78	234.96
762.11	234.88
762.43	234.78
762.76	234.69
763.08	234.64
763.41	234.58
763.74	234.51
764.06	234.43
764.39	234.37
764.71	234.30
765.04	234.21
765.37	234.12
765.69	234.04
766.02	233.98
766.34	233.89
766.67	233.74
767.00	233.70
767.32	233.72
767.65	233.77
767.97	233.68
768.30	233.63
768.62	233.55
768.95	233.46
769.27	233.39
769.60	233.35
769.92	233.25
770.25	233.15
770.57	233.07
770.90	233.00
771.22	232.93
771.55	232.87
771.87	232.83
772.20	232.77
772.52	232.88
772.85	233.05
773.17	232.99
773.50	232.93
773.82	232.84
774.15	232.69
774.47	232.52
774.80	232.45
775.12	232.40
775.45	232.34
775.77	232.32
776.09	232.28
776.42	232.23
776.74	232.25
777.07	232.21
777.39	232.19
777.72	232.13
778.04	232.10
778.36	232.03
778.69	231.99
779.01	231.96
779.33	231.75
779.66	231.48
779.98	231.45
780.31	231.41
780.63	231.45
780.95	231.46
781.28	231.42
781.60	231.38
781.92	231.35
782.25	231.32
782.57	231.27
782.89	231.24
783.22	231.20
783.54	231.12
783.86	231.11
784.19	231.07
784.51	231.09
784.83	231.04
785.16	231.01
785.48	230.99
785.80	230.97
786.12	230.94
786.45	230.92
786.77	230.90
787.09	230.87
787.42	230.77
787.74	230.74
788.06	230.71
788.38	230.68
788.71	230.63
789.03	230.61
789.35	230.61
789.67	230.55
789.99	230.53
790.32	230.48
790.64	230.47
790.96	230.59
791.28	230.50
791.61	230.47
791.93	230.46
792.25	230.42
792.57	230.51
792.89	230.47
793.21	230.45
793.54	230.40
793.86	230.36
794.18	230.35
794.50	230.29
794.82	230.27
795.14	230.27
795.47	230.29
795.79	230.27
796.11	230.20
796.43	230.19
796.75	230.17
797.07	230.15
797.39	230.13
797.71	229.96
798.04	229.96
798.36	229.95
798.68	229.91
799.00	229.91
799.32	229.79
799.64	229.80
799.96	229.79
800.28	229.80
800.60	229.78
800.92	229.77
801.24	229.74
801.56	229.73
801.89	229.70
802.21	229.70
802.53	229.66
802.85	229.69
803.17	229.75
803.49	229.69
803.81	229.65
804.13	229.63
804.45	229.59
804.77	229.58
805.09	229.56
805.41	229.53
805.73	229.48
806.05	229.42
806.37	229.39
806.69	229.35
807.01	229.33
807.33	229.33
807.65	229.24
807.97	229.31
808.28	229.27
808.60	229.25
808.92	229.19
809.24	229.28
809.56	229.22
809.88	229.14
810.20	229.14
810.52	229.16
810.84	229.11
811.16	229.09
811.48	229.06
811.80	229.13
812.12	229.12
812.43	229.15
812.75	229.15
813.07	229.13
813.39	229.13
813.71	229.09
814.03	229.07
814.35	229.06
814.67	228.98
814.98	228.97
815.30	228.97
815.62	228.94
815.94	228.80
816.26	228.81
816.58	228.78
816.89	228.78
817.21	228.73
817.53	228.74
817.85	228.74
818.17	228.72
818.48	228.63
818.80	228.65
819.12	228.60
819.44	228.56
819.76	228.53
820.07	228.52
820.39	228.51
820.71	228.51
821.03	228.51
821.34	228.48
821.66	228.49
821.98	228.49
822.30	228.48
822.61	228.59
822.93	228.56
823.25	228.56
823.57	228.53
823.88	228.55
824.20	228.53
824.52	228.55
824.83	228.54
825.15	228.52
825.47	228.50
825.79	228.51
826.10	228.49
826.42	228.48
826.74	228.47
827.05	228.47
827.37	228.47
827.69	228.45
828.00	228.46
828.32	228.45
828.64	228.41
828.95	228.50
829.27	228.43
829.58	228.42
829.90	228.43
830.22	228.44
830.53	228.40
830.85	228.37
831.17	228.31
831.48	228.30
831.80	228.31
832.11	228.29
832.43	228.26
832.75	228.26
833.06	228.36
833.38	228.31
833.69	228.29
834.01	228.28
834.32	228.28
834.64	228.25
834.96	228.24
835.27	228.24
835.59	228.16
835.90	228.12
836.22	228.11
836.53	228.08
836.85	228.05
837.16	228.23
837.48	228.23
837.79	228.28
838.11	228.27
838.42	228.26
838.74	228.26
839.05	228.24
839.37	228.22
839.68	228.11
840.00	228.09
840.31	228.11
840.63	228.08
840.94	228.06
841.26	228.04
841.57	228.03
841.88	228.03
842.20	228.00
842.51	227.97
842.83	227.97
843.14	228.12
843.46	228.11
843.77	228.00
844.08	227.99
844.40	227.94
844.71	227.92
845.03	227.90
845.34	227.89
845.65	227.89
845.97	227.90
846.28	227.92
846.60	227.93
846.91	227.90
847.22	227.89
847.54	227.92
847.85	227.94
848.16	227.92
848.48	227.89
848.79	227.97
849.10	227.99
849.42	227.99
849.73	227.83
850.04	227.83
850.36	227.75
850.67	227.78
850.98	227.78
851.30	227.80
851.61	227.79
851.92	227.79
852.23	227.83
852.55	227.85
852.86	227.84
853.17	227.85
853.49	227.88
853.80	227.92
854.11	227.93
854.42	227.95
854.74	227.93
855.05	227.94
855.36	227.85
855.67	227.85
855.99	227.85
856.30	228.06
856.61	228.06
856.92	228.08
857.23	228.08
857.55	228.07
857.86	228.04
858.17	228.07
858.48	228.04
858.79	228.01
859.11	228.01
859.42	228.00
859.73	227.97
860.04	227.96
860.35	227.90
860.66	227.83
860.98	227.82
861.29	227.84
861.60	227.83
861.91	227.87
862.22	227.84
862.53	227.81
862.84	227.61
863.16	227.63
863.47	227.59
863.78	227.57
864.09	227.57
864.40	227.59
864.71	227.58
865.02	227.60
865.33	227.57
865.64	227.55
865.95	227.55
866.27	227.66
866.58	227.64
866.89	227.65
867.20	227.66
867.51	227.63
867.82	227.62
868.13	227.68
868.44	227.64
868.75	227.68
869.06	227.68
869.37	227.69
869.68	227.64
869.99	227.68
870.30	227.69
870.61	227.70
870.92	227.67
871.23	227.66
871.54	227.68
871.85	227.73
872.16	227.74
872.47	227.73
872.78	227.62
873.09	227.65
873.40	227.63
873.71	227.63
874.02	227.65
874.33	227.63
874.64	227.59
874.95	227.62
875.26	227.57
875.56	227.57
875.87	227.55
876.18	227.55
876.49	227.72
876.80	227.70
877.11	227.67
877.42	227.68
877.73	227.68
878.04	227.66
878.35	227.65
878.66	227.66
878.96	227.65
879.27	227.64
879.58	227.63
879.89	227.63
880.20	227.68
880.51	227.66
880.82	227.67
881.12	227.68
881.43	227.64
881.74	227.61
882.05	227.60
882.36	227.63
882.67	227.64
882.97	227.45
883.28	227.44
883.59	227.44
883.90	227.46
884.21	227.48
884.51	227.47
884.82	227.43
885.13	227.43
885.44	227.43
885.74	227.45
886.05	227.44
886.36	227.44
886.67	227.37
886.98	227.46
887.28	227.48
887.59	227.48
887.90	227.49
888.20	227.50
888.51	227.54
888.82	227.51
889.13	227.52
889.43	227.67
889.74	227.66
890.05	227.67
890.35	227.65
890.66	227.62
890.97	227.59
891.28	227.58
891.58	227.58
891.89	227.58
892.20	227.56
892.50	227.54
892.81	227.53
893.12	227.54
893.42	227.45
893.73	227.43
894.04	227.43
894.34	227.44
894.65	227.43
894.95	227.41
895.26	227.41
895.57	227.48
895.87	227.30
896.18	227.34
896.48	227.34
896.79	227.33
897.10	227.35
897.40	227.36
897.71	227.38
898.01	227.36
898.32	227.39
898.63	227.39
898.93	227.40
899.24	227.39
899.54	227.38
899.85	227.38
900.15	227.38
900.46	227.38
900.76	227.39
901.07	227.38
901.38	227.37
901.68	227.38
901.99	227.30
902.29	227.31
902.60	227.29
902.90	227.27
903.21	227.27
903.51	227.25
903.82	227.28
904.12	227.28
904.43	227.30
904.73	227.27
905.03	227.28
905.34	227.45
905.64	227.45
905.95	227.44
906.25	227.43
906.56	227.41
906.86	227.41
907.17	227.39
907.47	227.41
907.77	227.39
908.08	227.36
908.38	227.37
908.69	227.38
908.99	227.40
909.30	227.41
909.60	227.41
909.90	227.41
910.21	227.36
910.51	227.32
910.81	227.31
911.12	227.33
911.42	227.33
911.73	227.15
912.03	227.16
912.33	227.21
912.64	227.19
912.94	227.17
913.24	227.14
913.55	227.13
913.85	227.12
914.15	227.15
914.46	227.17
914.76	227.15
915.06	227.14
915.37	227.11
915.67	227.08
915.97	227.10
916.27	227.08
916.58	227.10
916.88	227.11
917.18	227.10
917.49	227.22
917.79	227.21
918.09	227.23
918.39	227.28
918.70	227.26
919.00	227.26
919.30	227.35
919.60	227.34
919.91	227.32
920.21	227.32
920.51	227.28
920.81	227.27
921.12	227.30
921.42	227.30
921.72	227.32
922.02	227.33
922.32	227.34
922.63	227.36
922.93	227.45
923.23	227.45
923.53	227.43
923.83	227.30
924.13	227.31
924.44	227.31
924.74	227.33
925.04	227.37
925.34	227.37
925.64	227.29
925.94	227.30
926.24	227.41
926.55	227.40
926.85	227.43
927.15	227.43
927.45	227.43
927.75	227.43
928.05	227.42
928.35	227.41
928.65	227.44
928.95	227.45
929.26	227.37
929.56	227.41
929.86	227.43
930.16	227.42
930.46	227.40
930.76	227.40
931.06	227.33
931.36	227.28
931.66	227.32
931.96	227.34
932.26	227.35
932.56	227.27
932.86	227.28
933.16	227.28
933.46	227.26
933.76	227.23
934.06	227.26
934.36	227.32
934.66	227.32
934.96	227.30
935.26	227.29
935.56	227.32
935.86	227.27
936.16	227.25
936.46	227.24
936.76	227.23
937.06	227.20
937.36	227.21
937.66	227.21
937.96	227.19
938.26	227.16
938.56	227.15
938.86	227.16
939.16	227.21
939.46	227.22
939.76	227.23
940.06	227.24
940.35	227.21
940.65	227.12
940.95	227.13
941.25	227.08
941.55	227.06
941.85	227.04
942.15	227.08
942.45	227.13
942.75	227.13
943.04	227.15
943.34	227.19
943.64	227.17
943.94	227.16
944.24	227.16
944.54	227.17
944.84	227.17
945.13	227.14
945.43	227.10
945.73	227.09
946.03	227.07
946.33	227.05
946.62	227.03
946.92	227.03
947.22	227.04
947.52	227.06
947.82	227.09
948.11	227.07
948.41	227.04
948.71	226.99
949.01	226.99
949.31	226.97
949.60	226.96
949.90	226.98
950.20	226.97
950.50	226.96
950.79	226.95
951.09	226.98
951.39	226.97
951.69	226.95
951.98	226.99
952.28	227.00
952.58	227.00
952.87	227.00
953.17	227.02
953.47	227.01
953.76	227.00
954.06	226.96
954.36	226.93
954.66	226.93
954.95	226.98
955.25	227.00
955.55	227.01
955.84	226.98
956.14	226.99
956.44	226.99
956.73	226.97
957.03	226.98
957.32	226.99
957.62	226.98
957.92	227.02
958.21	227.00
958.51	227.20
958.81	227.22
959.10	227.25
959.40	227.28
959.69	227.29
959.99	227.31
960.29	227.33
960.58	227.33
960.88	227.40
961.17	227.38
961.47	227.39
961.76	227.37
962.06	227.42
962.36	227.39
962.65	227.40
962.95	227.41
963.24	227.39
963.54	227.39
963.83	227.40
964.13	227.38
964.42	227.37
964.72	227.22
965.01	227.22
965.31	227.20
965.60	227.16
965.90	227.27
966.19	227.23
966.49	227.24
966.78	227.23
967.08	227.21
967.37	227.21
967.67	227.18
967.96	227.19
968.26	227.19
968.55	227.21
968.85	227.20
969.14	227.20
969.43	227.21
969.73	227.19
970.02	227.18
970.32	227.18
970.61	227.15
970.91	227.10
971.20	227.07
971.49	227.06
971.79	227.08
972.08	226.96
972.38	226.98
972.67	226.97
972.96	227.00
973.26	226.97
973.55	227.02
973.85	227.02
974.14	227.02
974.43	227.02
974.73	226.99
975.02	226.98
975.31	226.98
975.61	226.98
975.90	226.97
976.19	226.96
976.49	226.97
976.78	226.99
977.07	226.99
977.37	227.01
977.66	227.02
977.95	227.00
978.24	227.01
978.54	227.05
978.83	227.03
979.12	227.03
979.42	227.02
979.71	226.99
980.00	226.98
980.29	226.98
980.59	226.94
980.88	226.99
981.17	226.99
981.46	227.00
981.76	227.00
982.05	227.06
982.34	227.07
982.63	227.06
982.93	227.06
983.22	227.12
983.51	227.11
983.80	227.13
984.09	227.15
984.39	227.14
984.68	227.11
984.97	227.13
985.26	227.11
985.55	227.13
985.85	227.10
986.14	227.13
986.43	227.15
986.72	227.14
987.01	227.10
987.30	227.10
987.59	227.09
987.89	227.08
988.18	227.02
988.47	227.01
988.76	226.99
989.05	226.98
989.34	226.94
989.63	226.99
989.92	226.97
990.22	226.95
990.51	226.95
990.80	226.94
991.09	226.95
991.38	226.98
991.67	226.95
991.96	226.94
992.25	226.94
992.54	226.90
992.83	226.90
993.12	226.89
993.41	226.91
993.70	226.98
993.99	227.01
994.28	227.04
994.58	227.07
994.87	227.06
995.16	227.05
995.45	227.04
995.74	226.96
996.03	226.98
996.32	227.00
996.61	227.03
996.90	227.03
997.19	227.02
997.48	227.02
997.77	227.01
998.06	227.01
998.34	227.00
998.63	227.01
998.92	227.01
999.21	227.05
999.50	227.05
999.79	226.98
1000.08	226.97
1000.37	226.97
1000.66	226.94
1000.95	226.99
1001.24	227.00
1001.53	227.02
1001.82	227.04
1002.11	227.00
1002.40	227.01
1002.68	227.05
1002.97	227.17
1003.26	227.15
1003.55	227.12
1003.84	227.13
1004.13	227.19
1004.42	227.17
1004.71	227.17
1004.99	227.17
1005.28	227.20
1005.57	227.19
1005.86	227.17
1006.15	227.17
1006.44	227.14
1006.72	227.17
1007.01	227.14
1007.30	227.16
1007.59	227.13
1007.88	227.12
1008.17	227.13
1008.45	227.08
1008.74	227.00
1009.03	226.92
1009.32	226.92
1009.60	226.93
1009.89	226.93
1010.18	226.85
1010.47	226.85
1010.76	226.83
1011.04	226.83
1011.33	226.82
1011.62	226.84
1011.91	226.85
1012.19	226.85
1012.48	226.86
1012.77	226.86
1013.05	226.91
1013.34	226.91
1013.63	226.90
1013.92	226.92
1014.20	226.90
1014.49	226.92
1014.78	226.94
1015.06	226.88
1015.35	226.89
1015.64	226.91
1015.92	226.93
1016.21	226.95
1016.50	226.95
1016.78	226.98
1017.07	226.99
1017.36	226.96
1017.64	226.93
1017.93	226.95
1018.22	226.94
1018.50	226.94
1018.79	226.94
1019.08	226.88
1019.36	226.89
1019.65	226.88
1019.93	226.93
1020.22	226.97
1020.51	227.07
1020.79	227.06
1021.08	226.79
1021.36	226.67
1021.65	227.06
1021.94	226.88
1022.22	227.13
1022.51	226.67
1022.79	227.86
1023.08	227.28
1023.36	229.12
1023.65	226.61
>>>>>End Processed Spectral Data<<<<<
