SpectraSuite Data File
++++++++++++++++++++++++++++++++++++
Date: Tue Oct 06 11:27:19 EDT 2015
User: lab3
Dark Spectrum Present: No
Reference Spectrum Present: No
Number of Sampled Component Spectra: 1
Spectrometers: USB2E7196
Integration Time (usec): 66000 (USB2E7196)
Spectra Averaged: 1000 (USB2E7196)
Boxcar Smoothing: 10 (USB2E7196)
Correct for Electrical Dark: No (USB2E7196)
Strobe/Lamp Enabled: No (USB2E7196)
Correct for Detector Non-linearity: No (USB2E7196)
Correct for Stray Light: No (USB2E7196)
Number of Pixels in Processed Spectrum: 2048
>>>>>Begin Processed Spectral Data<<<<<
339.09	0.00
339.48	216.11
339.86	217.48
340.24	218.85
340.63	220.33
341.01	224.47
341.39	223.18
341.78	224.40
342.16	225.74
342.54	226.15
342.93	214.56
343.31	225.40
343.69	225.94
344.07	226.39
344.46	226.84
344.84	227.24
345.22	227.44
345.60	227.70
345.99	227.92
346.37	228.06
346.75	228.18
347.13	228.26
347.52	228.34
347.90	228.46
348.28	228.51
348.66	228.58
349.05	228.56
349.43	228.63
349.81	228.70
350.19	228.76
350.57	228.84
350.96	228.93
351.34	229.03
351.72	229.13
352.10	229.25
352.48	229.31
352.87	229.37
353.25	229.42
353.63	229.48
354.01	229.54
354.39	229.62
354.77	229.69
355.15	229.81
355.54	229.84
355.92	229.85
356.30	229.93
356.68	230.11
357.06	230.17
357.44	230.21
357.82	230.27
358.20	230.48
358.58	230.54
358.97	230.60
359.35	230.70
359.73	230.80
360.11	230.85
360.49	230.91
360.87	230.97
361.25	231.04
361.63	231.14
362.01	231.19
362.39	231.21
362.77	231.26
363.15	231.28
363.53	231.32
363.91	231.36
364.29	231.39
364.67	231.25
365.05	231.30
365.43	231.34
365.81	231.37
366.19	231.32
366.57	231.40
366.95	231.41
367.33	231.36
367.71	231.35
368.09	231.39
368.47	231.39
368.85	231.38
369.23	231.40
369.61	231.33
369.99	231.37
370.37	231.38
370.75	231.51
371.13	231.47
371.51	231.43
371.89	231.43
372.27	231.41
372.65	231.39
373.03	231.34
373.41	231.29
373.78	231.25
374.16	231.12
374.54	231.02
374.92	230.96
375.30	230.94
375.68	230.87
376.06	230.83
376.44	230.77
376.82	230.73
377.19	230.69
377.57	230.64
377.95	230.54
378.33	230.48
378.71	230.27
379.09	230.23
379.47	230.21
379.84	230.12
380.22	230.06
380.60	229.98
380.98	229.93
381.36	229.88
381.73	229.81
382.11	229.80
382.49	229.77
382.87	229.71
383.25	229.67
383.62	229.82
384.00	229.75
384.38	229.71
384.76	229.71
385.13	229.73
385.51	229.69
385.89	229.64
386.27	229.61
386.64	229.61
387.02	229.56
387.40	229.51
387.78	229.50
388.15	229.49
388.53	229.46
388.91	229.45
389.29	229.43
389.66	229.45
390.04	229.40
390.42	229.41
390.79	229.41
391.17	229.39
391.55	229.19
391.92	229.18
392.30	229.20
392.68	229.15
393.05	229.13
393.43	229.15
393.81	229.16
394.18	229.13
394.56	229.15
394.94	229.21
395.31	229.21
395.69	229.27
396.06	229.31
396.44	229.35
396.82	229.36
397.19	229.48
397.57	229.49
397.95	229.56
398.32	229.55
398.70	229.63
399.07	229.71
399.45	229.78
399.82	229.85
400.20	229.90
400.58	230.00
400.95	230.02
401.33	230.16
401.70	230.39
402.08	230.55
402.45	230.67
402.83	230.83
403.20	231.00
403.58	231.13
403.95	231.34
404.33	231.57
404.71	231.79
405.08	232.09
405.46	232.34
405.83	232.61
406.21	232.91
406.58	233.24
406.96	233.57
407.33	233.94
407.70	234.36
408.08	234.94
408.45	235.45
408.83	235.99
409.20	236.49
409.58	236.95
409.95	237.58
410.33	238.26
410.70	238.91
411.08	239.67
411.45	240.48
411.82	241.30
412.20	242.23
412.57	243.33
412.95	244.22
413.32	245.38
413.69	246.57
414.07	247.82
414.44	249.19
414.82	250.59
415.19	252.23
415.56	253.91
415.94	255.64
416.31	257.57
416.68	259.53
417.06	261.79
417.43	263.90
417.81	266.33
418.18	268.83
418.55	271.55
418.93	274.39
419.30	277.35
419.67	280.50
420.04	283.75
420.42	287.15
420.79	291.06
421.16	295.00
421.54	298.99
421.91	303.18
422.28	307.54
422.66	312.22
423.03	316.65
423.40	321.31
423.77	326.31
424.15	331.44
424.52	336.73
424.89	342.49
425.26	348.20
425.64	353.49
426.01	359.41
426.38	365.50
426.75	371.74
427.13	378.11
427.50	384.80
427.87	391.70
428.24	398.65
428.61	405.30
428.99	412.51
429.36	420.46
429.73	428.07
430.10	435.61
430.47	443.36
430.85	451.41
431.22	459.97
431.59	468.72
431.96	477.24
432.33	486.75
432.70	495.78
433.08	506.49
433.45	516.61
433.82	526.55
434.19	537.61
434.56	548.56
434.93	559.15
435.30	569.66
435.68	581.60
436.05	593.29
436.42	604.97
436.79	615.62
437.16	627.11
437.53	639.48
437.90	651.85
438.27	663.90
438.64	676.88
439.01	688.72
439.38	699.69
439.75	710.27
440.13	722.26
440.50	733.70
440.87	742.77
441.24	752.74
441.61	763.72
441.98	771.78
442.35	781.28
442.72	791.04
443.09	800.36
443.46	806.51
443.83	811.09
444.20	814.84
444.57	820.39
444.94	823.78
445.31	827.13
445.68	830.01
446.05	832.15
446.42	831.85
446.79	831.32
447.16	830.82
447.53	830.48
447.90	826.97
448.27	823.49
448.64	818.14
449.01	814.53
449.37	806.94
449.74	800.19
450.11	791.40
450.48	781.67
450.85	771.86
451.22	763.31
451.59	755.02
451.96	747.61
452.33	736.78
452.70	727.08
453.07	715.34
453.43	703.67
453.80	692.35
454.17	681.48
454.54	671.37
454.91	659.93
455.28	649.07
455.65	638.78
456.02	628.03
456.38	619.37
456.75	608.18
457.12	599.14
457.49	589.97
457.86	581.40
458.23	573.88
458.59	565.58
458.96	557.06
459.33	549.55
459.70	541.91
460.07	536.03
460.43	529.12
460.80	522.66
461.17	517.00
461.54	510.93
461.91	505.28
462.27	499.51
462.64	494.79
463.01	489.41
463.38	484.06
463.74	479.22
464.11	474.90
464.48	471.01
464.85	466.81
465.21	463.57
465.58	459.96
465.95	455.84
466.32	452.53
466.68	449.31
467.05	446.06
467.42	442.89
467.78	439.52
468.15	436.42
468.52	434.14
468.88	431.15
469.25	428.41
469.62	426.23
469.98	423.85
470.35	421.70
470.72	419.79
471.08	417.77
471.45	416.10
471.82	414.22
472.18	412.28
472.55	411.03
472.92	409.46
473.28	408.23
473.65	406.93
474.02	405.72
474.38	404.69
474.75	404.08
475.11	403.19
475.48	402.79
475.85	402.35
476.21	402.09
476.58	401.92
476.94	402.10
477.31	402.13
477.67	402.24
478.04	402.55
478.41	402.96
478.77	403.59
479.14	403.95
479.50	404.74
479.87	405.74
480.23	406.73
480.60	407.69
480.96	408.67
481.33	410.09
481.69	411.52
482.06	412.96
482.42	414.28
482.79	415.94
483.15	417.82
483.52	419.95
483.88	422.03
484.25	424.22
484.61	426.53
484.98	428.99
485.34	431.76
485.71	434.64
486.07	437.73
486.44	440.75
486.80	444.13
487.17	447.59
487.53	451.41
487.90	455.38
488.26	459.72
488.62	464.26
488.99	468.84
489.35	473.68
489.72	478.90
490.08	484.32
490.44	489.86
490.81	495.61
491.17	501.49
491.54	507.72
491.90	514.15
492.26	520.95
492.63	528.08
492.99	535.51
493.36	543.20
493.72	551.30
494.08	559.58
494.45	568.30
494.81	577.36
495.17	586.63
495.54	596.42
495.90	606.63
496.26	617.09
496.63	627.78
496.99	638.82
497.35	650.31
497.72	662.19
498.08	674.51
498.44	687.06
498.80	700.47
499.17	714.18
499.53	728.31
499.89	742.88
500.26	757.51
500.62	772.46
500.98	788.09
501.34	803.86
501.71	820.39
502.07	837.19
502.43	854.50
502.79	871.86
503.16	889.70
503.52	907.72
503.88	926.23
504.24	945.16
504.60	964.35
504.97	983.96
505.33	1004.03
505.69	1025.10
506.05	1046.20
506.41	1067.10
506.78	1088.30
507.14	1110.34
507.50	1132.84
507.86	1155.86
508.22	1178.91
508.59	1201.82
508.95	1225.49
509.31	1249.64
509.67	1274.29
510.03	1298.80
510.39	1323.61
510.75	1348.55
511.12	1373.70
511.48	1398.68
511.84	1423.77
512.20	1449.24
512.56	1475.27
512.92	1501.08
513.28	1526.36
513.64	1552.13
514.00	1577.93
514.37	1604.00
514.73	1629.88
515.09	1655.09
515.45	1680.50
515.81	1705.91
516.17	1731.33
516.53	1756.12
516.89	1780.92
517.25	1805.85
517.61	1830.64
517.97	1855.63
518.33	1879.84
518.69	1903.90
519.05	1928.21
519.41	1952.38
519.77	1976.41
520.13	1999.99
520.49	2023.52
520.85	2047.22
521.21	2070.41
521.57	2094.08
521.93	2116.48
522.29	2139.22
522.65	2161.55
523.01	2183.80
523.37	2205.24
523.73	2227.06
524.09	2248.95
524.45	2270.59
524.81	2291.42
525.17	2311.90
525.53	2331.68
525.89	2352.08
526.25	2371.75
526.61	2390.27
526.97	2408.97
527.33	2427.30
527.68	2444.52
528.04	2461.15
528.40	2476.68
528.76	2492.75
529.12	2507.53
529.48	2523.06
529.84	2537.17
530.20	2552.13
530.56	2565.89
530.91	2579.91
531.27	2592.84
531.63	2604.74
531.99	2616.07
532.35	2626.38
532.71	2636.35
533.07	2646.72
533.42	2655.46
533.78	2664.92
534.14	2674.91
534.50	2683.41
534.86	2691.94
535.21	2698.53
535.57	2705.46
535.93	2712.77
536.29	2718.72
536.65	2724.65
537.00	2728.47
537.36	2732.77
537.72	2735.48
538.08	2738.08
538.44	2739.47
538.79	2741.43
539.15	2742.54
539.51	2743.20
539.87	2743.87
540.22	2742.96
540.58	2742.45
540.94	2741.70
541.29	2739.77
541.65	2736.29
542.01	2732.90
542.37	2728.45
542.72	2725.86
543.08	2721.61
543.44	2717.20
543.79	2711.26
544.15	2705.06
544.51	2699.66
544.87	2692.46
545.22	2684.69
545.58	2676.80
545.94	2669.49
546.29	2660.76
546.65	2651.91
547.01	2643.05
547.36	2633.88
547.72	2624.71
548.07	2614.08
548.43	2603.27
548.79	2591.55
549.14	2580.59
549.50	2569.46
549.86	2557.89
550.21	2544.77
550.57	2532.82
550.92	2518.70
551.28	2505.58
551.64	2493.08
551.99	2480.33
552.35	2467.53
552.70	2454.79
553.06	2442.38
553.41	2429.17
553.77	2415.32
554.13	2401.39
554.48	2387.01
554.84	2372.34
555.19	2358.28
555.55	2343.77
555.90	2329.16
556.26	2315.50
556.61	2300.79
556.97	2285.30
557.32	2270.28
557.68	2255.18
558.03	2239.74
558.39	2225.28
558.74	2210.95
559.10	2194.77
559.45	2179.20
559.81	2164.50
560.16	2149.50
560.52	2134.12
560.87	2119.36
561.23	2104.15
561.58	2089.32
561.94	2073.69
562.29	2058.27
562.64	2042.78
563.00	2027.64
563.35	2013.09
563.71	1998.11
564.06	1983.12
564.42	1968.64
564.77	1953.98
565.12	1939.86
565.48	1925.58
565.83	1911.58
566.19	1897.46
566.54	1883.65
566.89	1868.71
567.25	1853.33
567.60	1839.04
567.96	1824.23
568.31	1808.78
568.66	1794.12
569.02	1779.71
569.37	1765.55
569.72	1751.56
570.08	1737.64
570.43	1723.31
570.78	1708.40
571.14	1693.51
571.49	1679.08
571.84	1665.37
572.20	1650.53
572.55	1635.92
572.90	1620.90
573.26	1605.67
573.61	1590.40
573.96	1575.81
574.31	1561.72
574.67	1547.90
575.02	1533.21
575.37	1518.43
575.72	1503.86
576.08	1489.70
576.43	1475.36
576.78	1461.13
577.13	1446.96
577.49	1432.94
577.84	1419.02
578.19	1405.11
578.54	1391.33
578.90	1377.52
579.25	1363.17
579.60	1349.78
579.95	1336.56
580.30	1323.19
580.66	1310.00
581.01	1297.02
581.36	1283.77
581.71	1270.59
582.06	1257.34
582.42	1244.24
582.77	1231.57
583.12	1219.13
583.47	1206.58
583.82	1194.26
584.17	1181.81
584.53	1169.62
584.88	1157.53
585.23	1145.40
585.58	1133.59
585.93	1121.85
586.28	1110.68
586.63	1099.48
586.98	1088.18
587.34	1077.13
587.69	1066.04
588.04	1055.24
588.39	1044.54
588.74	1033.63
589.09	1023.06
589.44	1012.32
589.79	1002.13
590.14	992.02
590.49	982.03
590.84	972.20
591.19	962.43
591.54	952.75
591.89	942.64
592.25	932.79
592.60	922.88
592.95	913.27
593.30	903.60
593.65	893.82
594.00	884.37
594.35	875.67
594.70	866.42
595.05	857.88
595.40	849.10
595.75	840.06
596.10	831.69
596.45	823.18
596.80	814.90
597.15	806.68
597.50	798.49
597.85	790.56
598.19	782.64
598.54	774.67
598.89	766.93
599.24	759.60
599.59	752.31
599.94	745.50
600.29	738.48
600.64	731.60
600.99	724.66
601.34	717.87
601.69	710.58
602.04	703.84
602.39	697.19
602.74	690.73
603.08	684.48
603.43	678.21
603.78	672.03
604.13	666.02
604.48	659.98
604.83	654.08
605.18	648.27
605.53	642.57
605.87	636.83
606.22	631.26
606.57	625.63
606.92	619.93
607.27	614.32
607.62	608.99
607.96	603.77
608.31	598.85
608.66	593.86
609.01	589.08
609.36	584.46
609.70	579.67
610.05	574.87
610.40	570.19
610.75	565.53
611.10	561.10
611.44	556.61
611.79	552.25
612.14	547.97
612.49	543.59
612.83	539.36
613.18	535.34
613.53	531.41
613.88	527.47
614.22	523.77
614.57	519.94
614.92	516.17
615.27	512.50
615.61	508.87
615.96	505.29
616.31	501.70
616.65	498.14
617.00	494.72
617.35	491.40
617.70	488.16
618.04	485.00
618.39	481.85
618.74	478.85
619.08	475.77
619.43	472.72
619.78	469.78
620.12	466.90
620.47	464.18
620.82	461.43
621.16	458.77
621.51	456.20
621.85	453.69
622.20	451.23
622.55	448.75
622.89	446.33
623.24	444.04
623.59	441.75
623.93	439.55
624.28	437.44
624.62	435.54
624.97	433.59
625.32	431.50
625.66	429.40
626.01	427.34
626.35	425.43
626.70	423.50
627.04	421.72
627.39	419.85
627.73	418.03
628.08	416.30
628.43	414.62
628.77	412.87
629.12	411.24
629.46	409.62
629.81	408.12
630.15	406.49
630.50	404.89
630.84	403.41
631.19	401.97
631.53	400.56
631.88	398.92
632.22	397.39
632.57	396.19
632.91	394.96
633.26	393.79
633.60	392.58
633.95	391.41
634.29	390.15
634.64	388.99
634.98	387.70
635.32	386.54
635.67	385.47
636.01	384.40
636.36	383.37
636.70	382.46
637.05	381.37
637.39	380.43
637.73	379.51
638.08	378.61
638.42	377.70
638.77	376.70
639.11	375.68
639.45	374.68
639.80	373.64
640.14	372.67
640.49	371.68
640.83	370.70
641.17	369.74
641.52	368.83
641.86	367.95
642.20	367.21
642.55	366.29
642.89	365.38
643.23	364.50
643.58	363.71
643.92	362.75
644.26	361.88
644.61	361.10
644.95	360.26
645.29	359.39
645.64	358.49
645.98	357.65
646.32	356.94
646.66	356.19
647.01	355.40
647.35	354.68
647.69	353.92
648.04	353.21
648.38	352.48
648.72	351.78
649.06	351.09
649.41	350.34
649.75	349.63
650.09	348.99
650.43	348.30
650.78	347.59
651.12	346.92
651.46	346.28
651.80	345.60
652.14	344.93
652.49	344.31
652.83	343.66
653.17	343.02
653.51	342.38
653.85	341.82
654.20	341.23
654.54	340.56
654.88	339.93
655.22	339.32
655.56	338.63
655.90	337.95
656.25	337.27
656.59	336.62
656.93	336.04
657.27	335.50
657.61	334.91
657.95	334.35
658.29	333.78
658.64	333.24
658.98	332.62
659.32	332.01
659.66	331.44
660.00	330.88
660.34	330.36
660.68	329.79
661.02	329.14
661.36	328.56
661.70	328.00
662.05	327.45
662.39	326.94
662.73	326.51
663.07	326.11
663.41	325.62
663.75	325.08
664.09	324.55
664.43	323.93
664.77	323.41
665.11	322.80
665.45	322.25
665.79	321.70
666.13	321.16
666.47	320.63
666.81	320.07
667.15	319.47
667.49	318.95
667.83	318.48
668.17	317.99
668.51	317.50
668.85	317.05
669.19	316.69
669.53	316.17
669.87	315.64
670.21	315.12
670.55	314.65
670.89	314.28
671.23	313.81
671.57	313.37
671.91	312.96
672.25	312.58
672.58	312.23
672.92	311.76
673.26	311.34
673.60	310.92
673.94	310.51
674.28	310.15
674.62	309.76
674.96	309.29
675.30	308.89
675.64	308.45
675.97	307.97
676.31	307.42
676.65	306.95
676.99	306.56
677.33	306.06
677.67	305.60
678.01	305.04
678.34	304.58
678.68	304.13
679.02	303.64
679.36	303.17
679.70	302.65
680.04	302.23
680.37	301.80
680.71	301.36
681.05	300.93
681.39	300.46
681.73	299.96
682.06	299.49
682.40	299.03
682.74	298.63
683.08	298.28
683.42	297.83
683.75	297.42
684.09	296.89
684.43	296.44
684.77	295.96
685.10	295.55
685.44	295.15
685.78	294.72
686.12	294.28
686.45	293.83
686.79	293.36
687.13	292.92
687.46	292.44
687.80	291.97
688.14	291.46
688.48	291.01
688.81	290.55
689.15	290.17
689.49	289.71
689.82	289.23
690.16	288.68
690.50	288.22
690.83	287.76
691.17	287.30
691.51	286.84
691.84	286.46
692.18	286.00
692.52	285.51
692.85	285.06
693.19	284.68
693.52	284.24
693.86	283.79
694.20	283.34
694.53	282.91
694.87	282.43
695.21	281.96
695.54	281.52
695.88	281.06
696.21	280.54
696.55	280.11
696.88	279.65
697.22	279.19
697.56	278.78
697.89	278.30
698.23	277.88
698.56	277.42
698.90	276.98
699.23	276.52
699.57	276.12
699.90	275.68
700.24	275.19
700.58	274.77
700.91	274.41
701.25	274.16
701.58	273.83
701.92	273.52
702.25	273.18
702.59	272.78
702.92	272.39
703.26	272.00
703.59	271.60
703.93	271.36
704.26	271.00
704.60	270.60
704.93	270.21
705.26	269.80
705.60	269.47
705.93	269.04
706.27	268.71
706.60	268.35
706.94	268.04
707.27	267.63
707.61	267.26
707.94	266.85
708.27	266.31
708.61	265.86
708.94	265.44
709.28	265.07
709.61	264.69
709.94	264.35
710.28	264.03
710.61	263.73
710.95	263.25
711.28	263.05
711.61	262.72
711.95	262.44
712.28	262.10
712.61	261.75
712.95	261.53
713.28	261.29
713.61	260.94
713.95	260.58
714.28	260.28
714.61	259.95
714.95	259.65
715.28	259.34
715.61	259.04
715.95	258.76
716.28	258.46
716.61	258.20
716.95	257.88
717.28	257.57
717.61	257.26
717.94	256.96
718.28	256.55
718.61	256.25
718.94	255.95
719.27	255.69
719.61	255.45
719.94	255.15
720.27	254.80
720.60	254.55
720.94	254.30
721.27	254.07
721.60	253.86
721.93	253.60
722.27	253.42
722.60	253.20
722.93	252.94
723.26	252.72
723.59	252.46
723.93	252.26
724.26	252.05
724.59	251.83
724.92	251.63
725.25	251.46
725.59	251.24
725.92	251.07
726.25	250.85
726.58	250.63
726.91	250.38
727.24	250.19
727.57	249.98
727.91	249.73
728.24	249.55
728.57	249.32
728.90	249.15
729.23	248.90
729.56	248.77
729.89	248.59
730.22	248.38
730.55	248.19
730.89	248.00
731.22	247.80
731.55	247.61
731.88	247.43
732.21	247.21
732.54	247.01
732.87	246.81
733.20	246.64
733.53	246.48
733.86	246.33
734.19	246.11
734.52	245.97
734.85	245.94
735.18	245.74
735.51	245.63
735.84	245.47
736.17	245.36
736.50	245.11
736.83	245.16
737.16	245.00
737.49	244.85
737.82	244.68
738.15	244.54
738.48	244.39
738.81	244.21
739.14	244.05
739.47	243.89
739.80	243.73
740.13	243.61
740.46	243.43
740.79	243.27
741.12	243.13
741.45	242.94
741.78	242.69
742.11	242.60
742.44	242.40
742.77	242.28
743.10	242.11
743.43	241.96
743.75	241.63
744.08	241.76
744.41	241.62
744.74	241.47
745.07	241.30
745.40	241.21
745.73	241.17
746.06	241.05
746.39	240.95
746.71	240.80
747.04	240.65
747.37	240.52
747.70	240.41
748.03	240.30
748.36	240.22
748.68	240.10
749.01	239.94
749.34	239.82
749.67	239.70
750.00	239.62
750.33	239.63
750.65	239.53
750.98	239.17
751.31	239.06
751.64	238.98
751.97	238.97
752.29	238.82
752.62	238.63
752.95	238.50
753.28	238.38
753.60	238.27
753.93	238.21
754.26	238.12
754.59	237.97
754.91	237.86
755.24	237.72
755.57	237.70
755.90	237.58
756.22	237.46
756.55	237.33
756.88	237.18
757.20	236.97
757.53	236.82
757.86	236.72
758.19	236.63
758.51	236.53
758.84	236.34
759.17	236.24
759.49	236.16
759.82	236.16
760.15	236.09
760.47	236.01
760.80	235.87
761.13	235.81
761.45	235.73
761.78	235.65
762.11	235.58
762.43	235.41
762.76	235.35
763.08	235.30
763.41	235.23
763.74	235.18
764.06	235.10
764.39	235.05
764.71	234.97
765.04	234.88
765.37	234.79
765.69	234.73
766.02	234.65
766.34	234.57
766.67	234.43
767.00	234.39
767.32	234.43
767.65	234.48
767.97	234.39
768.30	234.33
768.62	234.26
768.95	234.17
769.27	234.10
769.60	234.06
769.92	233.97
770.25	233.89
770.57	233.80
770.90	233.74
771.22	233.66
771.55	233.61
771.87	233.57
772.20	233.52
772.52	233.62
772.85	233.79
773.17	233.74
773.50	233.68
773.82	233.60
774.15	233.45
774.47	233.28
774.80	233.23
775.12	233.18
775.45	233.13
775.77	233.10
776.09	233.07
776.42	233.02
776.74	233.03
777.07	232.99
777.39	232.96
777.72	232.90
778.04	232.90
778.36	232.83
778.69	232.78
779.01	232.75
779.33	232.56
779.66	232.32
779.98	232.26
780.31	232.23
780.63	232.26
780.95	232.25
781.28	232.22
781.60	232.17
781.92	232.14
782.25	232.11
782.57	232.08
782.89	232.03
783.22	231.99
783.54	231.92
783.86	231.90
784.19	231.84
784.51	231.86
784.83	231.80
785.16	231.77
785.48	231.75
785.80	231.72
786.12	231.70
786.45	231.67
786.77	231.67
787.09	231.62
787.42	231.54
787.74	231.52
788.06	231.50
788.38	231.46
788.71	231.42
789.03	231.40
789.35	231.39
789.67	231.35
789.99	231.33
790.32	231.29
790.64	231.29
790.96	231.44
791.28	231.35
791.61	231.33
791.93	231.31
792.25	231.28
792.57	231.38
792.89	231.33
793.21	231.32
793.54	231.26
793.86	231.23
794.18	231.20
794.50	231.14
794.82	231.12
795.14	231.13
795.47	231.15
795.79	231.12
796.11	231.06
796.43	231.04
796.75	231.02
797.07	231.00
797.39	230.96
797.71	230.80
798.04	230.79
798.36	230.78
798.68	230.75
799.00	230.75
799.32	230.63
799.64	230.65
799.96	230.62
800.28	230.65
800.60	230.62
800.92	230.62
801.24	230.59
801.56	230.59
801.89	230.55
802.21	230.52
802.53	230.48
802.85	230.51
803.17	230.57
803.49	230.52
803.81	230.49
804.13	230.46
804.45	230.42
804.77	230.43
805.09	230.41
805.41	230.37
805.73	230.31
806.05	230.26
806.37	230.22
806.69	230.18
807.01	230.15
807.33	230.15
807.65	230.07
807.97	230.13
808.28	230.11
808.60	230.08
808.92	230.06
809.24	230.16
809.56	230.11
809.88	230.03
810.20	230.02
810.52	230.05
810.84	230.01
811.16	229.98
811.48	229.95
811.80	230.00
812.12	229.99
812.43	230.02
812.75	230.02
813.07	230.00
813.39	230.01
813.71	229.97
814.03	229.93
814.35	229.94
814.67	229.85
814.98	229.82
815.30	229.82
815.62	229.77
815.94	229.65
816.26	229.66
816.58	229.61
816.89	229.61
817.21	229.55
817.53	229.55
817.85	229.56
818.17	229.55
818.48	229.46
818.80	229.49
819.12	229.45
819.44	229.41
819.76	229.38
820.07	229.37
820.39	229.36
820.71	229.38
821.03	229.37
821.34	229.35
821.66	229.36
821.98	229.37
822.30	229.35
822.61	229.44
822.93	229.41
823.25	229.41
823.57	229.38
823.88	229.40
824.20	229.39
824.52	229.40
824.83	229.38
825.15	229.37
825.47	229.34
825.79	229.35
826.10	229.33
826.42	229.32
826.74	229.33
827.05	229.32
827.37	229.31
827.69	229.30
828.00	229.31
828.32	229.30
828.64	229.26
828.95	229.35
829.27	229.28
829.58	229.27
829.90	229.29
830.22	229.30
830.53	229.26
830.85	229.24
831.17	229.19
831.48	229.19
831.80	229.19
832.11	229.18
832.43	229.13
832.75	229.13
833.06	229.23
833.38	229.18
833.69	229.16
834.01	229.16
834.32	229.15
834.64	229.12
834.96	229.11
835.27	229.11
835.59	229.04
835.90	229.03
836.22	229.02
836.53	228.98
836.85	228.95
837.16	229.13
837.48	229.14
837.79	229.19
838.11	229.17
838.42	229.17
838.74	229.19
839.05	229.18
839.37	229.16
839.68	229.04
840.00	229.04
840.31	229.06
840.63	229.04
840.94	229.01
841.26	228.99
841.57	228.98
841.88	228.98
842.20	228.95
842.51	228.91
842.83	228.91
843.14	229.07
843.46	229.06
843.77	228.95
844.08	228.92
844.40	228.87
844.71	228.86
845.03	228.84
845.34	228.81
845.65	228.80
845.97	228.80
846.28	228.81
846.60	228.83
846.91	228.79
847.22	228.78
847.54	228.83
847.85	228.84
848.16	228.83
848.48	228.80
848.79	228.87
849.10	228.90
849.42	228.90
849.73	228.73
850.04	228.73
850.36	228.67
850.67	228.71
850.98	228.71
851.30	228.72
851.61	228.72
851.92	228.72
852.23	228.78
852.55	228.78
852.86	228.78
853.17	228.78
853.49	228.82
853.80	228.85
854.11	228.85
854.42	228.87
854.74	228.86
855.05	228.84
855.36	228.75
855.67	228.73
855.99	228.74
856.30	228.94
856.61	228.94
856.92	228.94
857.23	228.93
857.55	228.91
857.86	228.90
858.17	228.91
858.48	228.87
858.79	228.82
859.11	228.84
859.42	228.83
859.73	228.80
860.04	228.78
860.35	228.73
860.66	228.67
860.98	228.65
861.29	228.66
861.60	228.66
861.91	228.70
862.22	228.68
862.53	228.65
862.84	228.44
863.16	228.47
863.47	228.42
863.78	228.39
864.09	228.40
864.40	228.41
864.71	228.42
865.02	228.45
865.33	228.43
865.64	228.39
865.95	228.37
866.27	228.48
866.58	228.46
866.89	228.49
867.20	228.48
867.51	228.46
867.82	228.46
868.13	228.51
868.44	228.46
868.75	228.49
869.06	228.50
869.37	228.52
869.68	228.48
869.99	228.52
870.30	228.53
870.61	228.54
870.92	228.52
871.23	228.49
871.54	228.51
871.85	228.56
872.16	228.57
872.47	228.57
872.78	228.47
873.09	228.49
873.40	228.46
873.71	228.48
874.02	228.50
874.33	228.48
874.64	228.44
874.95	228.48
875.26	228.44
875.56	228.43
875.87	228.42
876.18	228.42
876.49	228.59
876.80	228.58
877.11	228.55
877.42	228.56
877.73	228.56
878.04	228.53
878.35	228.52
878.66	228.53
878.96	228.53
879.27	228.51
879.58	228.49
879.89	228.47
880.20	228.51
880.51	228.49
880.82	228.50
881.12	228.50
881.43	228.47
881.74	228.45
882.05	228.45
882.36	228.46
882.67	228.47
882.97	228.28
883.28	228.26
883.59	228.26
883.90	228.27
884.21	228.29
884.51	228.28
884.82	228.26
885.13	228.25
885.44	228.25
885.74	228.25
886.05	228.25
886.36	228.27
886.67	228.21
886.98	228.29
887.28	228.30
887.59	228.29
887.90	228.28
888.20	228.29
888.51	228.31
888.82	228.29
889.13	228.30
889.43	228.46
889.74	228.45
890.05	228.43
890.35	228.42
890.66	228.38
890.97	228.36
891.28	228.35
891.58	228.36
891.89	228.37
892.20	228.36
892.50	228.35
892.81	228.33
893.12	228.33
893.42	228.26
893.73	228.27
894.04	228.27
894.34	228.29
894.65	228.29
894.95	228.27
895.26	228.27
895.57	228.35
895.87	228.16
896.18	228.18
896.48	228.20
896.79	228.20
897.10	228.23
897.40	228.25
897.71	228.26
898.01	228.24
898.32	228.24
898.63	228.24
898.93	228.25
899.24	228.26
899.54	228.25
899.85	228.24
900.15	228.22
900.46	228.22
900.76	228.24
901.07	228.24
901.38	228.22
901.68	228.24
901.99	228.15
902.29	228.18
902.60	228.17
902.90	228.14
903.21	228.14
903.51	228.12
903.82	228.16
904.12	228.17
904.43	228.17
904.73	228.17
905.03	228.19
905.34	228.35
905.64	228.33
905.95	228.33
906.25	228.33
906.56	228.33
906.86	228.32
907.17	228.30
907.47	228.31
907.77	228.30
908.08	228.27
908.38	228.27
908.69	228.28
908.99	228.31
909.30	228.32
909.60	228.32
909.90	228.32
910.21	228.26
910.51	228.23
910.81	228.23
911.12	228.24
911.42	228.24
911.73	228.06
912.03	228.08
912.33	228.12
912.64	228.10
912.94	228.08
913.24	228.06
913.55	228.05
913.85	228.04
914.15	228.08
914.46	228.09
914.76	228.07
915.06	228.07
915.37	228.04
915.67	228.03
915.97	228.03
916.27	228.01
916.58	228.01
916.88	228.02
917.18	228.00
917.49	228.10
917.79	228.09
918.09	228.12
918.39	228.17
918.70	228.15
919.00	228.17
919.30	228.25
919.60	228.24
919.91	228.21
920.21	228.22
920.51	228.18
920.81	228.16
921.12	228.19
921.42	228.19
921.72	228.19
922.02	228.20
922.32	228.23
922.63	228.24
922.93	228.34
923.23	228.35
923.53	228.33
923.83	228.21
924.13	228.24
924.44	228.23
924.74	228.25
925.04	228.28
925.34	228.27
925.64	228.20
925.94	228.20
926.24	228.31
926.55	228.30
926.85	228.31
927.15	228.33
927.45	228.33
927.75	228.33
928.05	228.34
928.35	228.32
928.65	228.35
928.95	228.36
929.26	228.29
929.56	228.31
929.86	228.35
930.16	228.33
930.46	228.31
930.76	228.32
931.06	228.24
931.36	228.18
931.66	228.23
931.96	228.25
932.26	228.26
932.56	228.20
932.86	228.20
933.16	228.20
933.46	228.19
933.76	228.15
934.06	228.17
934.36	228.23
934.66	228.22
934.96	228.20
935.26	228.20
935.56	228.21
935.86	228.16
936.16	228.13
936.46	228.12
936.76	228.11
937.06	228.08
937.36	228.10
937.66	228.12
937.96	228.09
938.26	228.06
938.56	228.04
938.86	228.04
939.16	228.08
939.46	228.09
939.76	228.10
940.06	228.10
940.35	228.08
940.65	227.99
940.95	228.01
941.25	227.96
941.55	227.94
941.85	227.92
942.15	227.96
942.45	228.01
942.75	228.01
943.04	228.01
943.34	228.04
943.64	228.03
943.94	227.99
944.24	227.98
944.54	227.99
944.84	227.99
945.13	227.97
945.43	227.93
945.73	227.92
946.03	227.90
946.33	227.89
946.62	227.88
946.92	227.88
947.22	227.88
947.52	227.91
947.82	227.93
948.11	227.91
948.41	227.87
948.71	227.82
949.01	227.83
949.31	227.81
949.60	227.80
949.90	227.82
950.20	227.82
950.50	227.81
950.79	227.80
951.09	227.83
951.39	227.83
951.69	227.81
951.98	227.84
952.28	227.86
952.58	227.86
952.87	227.86
953.17	227.88
953.47	227.86
953.76	227.86
954.06	227.82
954.36	227.81
954.66	227.80
954.95	227.86
955.25	227.87
955.55	227.90
955.84	227.88
956.14	227.89
956.44	227.90
956.73	227.88
957.03	227.88
957.32	227.88
957.62	227.88
957.92	227.91
958.21	227.90
958.51	228.10
958.81	228.12
959.10	228.14
959.40	228.17
959.69	228.18
959.99	228.21
960.29	228.22
960.58	228.22
960.88	228.29
961.17	228.27
961.47	228.29
961.76	228.28
962.06	228.31
962.36	228.29
962.65	228.30
962.95	228.31
963.24	228.31
963.54	228.31
963.83	228.32
964.13	228.32
964.42	228.30
964.72	228.15
965.01	228.15
965.31	228.14
965.60	228.09
965.90	228.20
966.19	228.16
966.49	228.17
966.78	228.17
967.08	228.13
967.37	228.14
967.67	228.10
967.96	228.12
968.26	228.11
968.55	228.13
968.85	228.12
969.14	228.12
969.43	228.12
969.73	228.10
970.02	228.09
970.32	228.07
970.61	228.05
970.91	228.01
971.20	227.98
971.49	227.97
971.79	228.00
972.08	227.87
972.38	227.88
972.67	227.87
972.96	227.91
973.26	227.88
973.55	227.93
973.85	227.92
974.14	227.91
974.43	227.92
974.73	227.89
975.02	227.88
975.31	227.89
975.61	227.87
975.90	227.87
976.19	227.86
976.49	227.87
976.78	227.88
977.07	227.87
977.37	227.90
977.66	227.92
977.95	227.89
978.24	227.91
978.54	227.95
978.83	227.94
979.12	227.92
979.42	227.93
979.71	227.89
980.00	227.90
980.29	227.92
980.59	227.88
980.88	227.93
981.17	227.93
981.46	227.93
981.76	227.93
982.05	228.00
982.34	228.01
982.63	228.00
982.93	228.01
983.22	228.06
983.51	228.06
983.80	228.09
984.09	228.12
984.39	228.10
984.68	228.07
984.97	228.08
985.26	228.07
985.55	228.09
985.85	228.04
986.14	228.06
986.43	228.06
986.72	228.04
987.01	227.99
987.30	227.99
987.59	227.98
987.89	227.98
988.18	227.92
988.47	227.90
988.76	227.89
989.05	227.88
989.34	227.85
989.63	227.89
989.92	227.86
990.22	227.84
990.51	227.83
990.80	227.81
991.09	227.83
991.38	227.86
991.67	227.85
991.96	227.84
992.25	227.85
992.54	227.82
992.83	227.84
993.12	227.83
993.41	227.86
993.70	227.92
993.99	227.95
994.28	227.98
994.58	228.00
994.87	227.99
995.16	227.98
995.45	227.97
995.74	227.91
996.03	227.94
996.32	227.97
996.61	228.01
996.90	228.02
997.19	228.00
997.48	227.99
997.77	227.97
998.06	227.99
998.34	227.97
998.63	227.96
998.92	227.97
999.21	227.99
999.50	227.98
999.79	227.92
1000.08	227.91
1000.37	227.92
1000.66	227.89
1000.95	227.94
1001.24	227.95
1001.53	227.97
1001.82	227.97
1002.11	227.93
1002.40	227.94
1002.68	227.97
1002.97	228.10
1003.26	228.09
1003.55	228.05
1003.84	228.07
1004.13	228.11
1004.42	228.11
1004.71	228.12
1004.99	228.11
1005.28	228.15
1005.57	228.14
1005.86	228.13
1006.15	228.12
1006.44	228.09
1006.72	228.12
1007.01	228.07
1007.30	228.07
1007.59	228.06
1007.88	228.05
1008.17	228.06
1008.45	228.02
1008.74	227.95
1009.03	227.86
1009.32	227.87
1009.60	227.87
1009.89	227.86
1010.18	227.80
1010.47	227.78
1010.76	227.77
1011.04	227.77
1011.33	227.75
1011.62	227.77
1011.91	227.79
1012.19	227.80
1012.48	227.80
1012.77	227.80
1013.05	227.86
1013.34	227.87
1013.63	227.87
1013.92	227.88
1014.20	227.86
1014.49	227.87
1014.78	227.89
1015.06	227.83
1015.35	227.82
1015.64	227.85
1015.92	227.87
1016.21	227.88
1016.50	227.89
1016.78	227.91
1017.07	227.93
1017.36	227.90
1017.64	227.88
1017.93	227.89
1018.22	227.88
1018.50	227.88
1018.79	227.87
1019.08	227.81
1019.36	227.80
1019.65	227.78
1019.93	227.83
1020.22	227.85
1020.51	227.94
1020.79	227.93
1021.08	227.73
1021.36	227.69
1021.65	227.89
1021.94	227.77
1022.22	227.84
1022.51	227.46
1022.79	228.74
1023.08	227.98
1023.36	229.98
1023.65	227.51
>>>>>End Processed Spectral Data<<<<<
