SpectraSuite Data File
++++++++++++++++++++++++++++++++++++
Date: Tue Oct 06 13:25:27 EDT 2015
User: lab3
Dark Spectrum Present: No
Reference Spectrum Present: No
Number of Sampled Component Spectra: 1
Spectrometers: USB2E7196
Integration Time (usec): 66000 (USB2E7196)
Spectra Averaged: 1000 (USB2E7196)
Boxcar Smoothing: 10 (USB2E7196)
Correct for Electrical Dark: No (USB2E7196)
Strobe/Lamp Enabled: No (USB2E7196)
Correct for Detector Non-linearity: No (USB2E7196)
Correct for Stray Light: No (USB2E7196)
Number of Pixels in Processed Spectrum: 2048
>>>>>Begin Processed Spectral Data<<<<<
339.09	0.00
339.48	216.03
339.86	217.57
340.24	218.75
340.63	220.32
341.01	224.41
341.39	223.01
341.78	224.59
342.16	225.91
342.54	226.12
342.93	214.54
343.31	225.38
343.69	225.92
344.07	226.39
344.46	226.85
344.84	227.25
345.22	227.44
345.60	227.72
345.99	227.92
346.37	228.05
346.75	228.17
347.13	228.26
347.52	228.34
347.90	228.46
348.28	228.50
348.66	228.58
349.05	228.58
349.43	228.65
349.81	228.72
350.19	228.78
350.57	228.85
350.96	228.94
351.34	229.05
351.72	229.15
352.10	229.25
352.48	229.31
352.87	229.36
353.25	229.44
353.63	229.48
354.01	229.55
354.39	229.63
354.77	229.71
355.15	229.83
355.54	229.86
355.92	229.87
356.30	229.95
356.68	230.13
357.06	230.20
357.44	230.24
357.82	230.30
358.20	230.51
358.58	230.56
358.97	230.62
359.35	230.71
359.73	230.80
360.11	230.86
360.49	230.92
360.87	230.97
361.25	231.03
361.63	231.14
362.01	231.19
362.39	231.21
362.77	231.26
363.15	231.27
363.53	231.31
363.91	231.35
364.29	231.38
364.67	231.23
365.05	231.26
365.43	231.31
365.81	231.34
366.19	231.30
366.57	231.37
366.95	231.37
367.33	231.33
367.71	231.32
368.09	231.36
368.47	231.36
368.85	231.35
369.23	231.37
369.61	231.30
369.99	231.33
370.37	231.34
370.75	231.46
371.13	231.43
371.51	231.39
371.89	231.37
372.27	231.34
372.65	231.33
373.03	231.29
373.41	231.24
373.78	231.18
374.16	231.06
374.54	230.97
374.92	230.92
375.30	230.88
375.68	230.81
376.06	230.77
376.44	230.72
376.82	230.67
377.19	230.63
377.57	230.57
377.95	230.46
378.33	230.40
378.71	230.20
379.09	230.16
379.47	230.15
379.84	230.08
380.22	230.02
380.60	229.95
380.98	229.90
381.36	229.84
381.73	229.79
382.11	229.78
382.49	229.75
382.87	229.68
383.25	229.64
383.62	229.80
384.00	229.72
384.38	229.69
384.76	229.69
385.13	229.72
385.51	229.69
385.89	229.64
386.27	229.61
386.64	229.60
387.02	229.55
387.40	229.50
387.78	229.50
388.15	229.48
388.53	229.45
388.91	229.43
389.29	229.41
389.66	229.41
390.04	229.37
390.42	229.38
390.79	229.38
391.17	229.36
391.55	229.15
391.92	229.14
392.30	229.16
392.68	229.12
393.05	229.10
393.43	229.12
393.81	229.14
394.18	229.13
394.56	229.14
394.94	229.19
395.31	229.18
395.69	229.26
396.06	229.31
396.44	229.35
396.82	229.37
397.19	229.50
397.57	229.51
397.95	229.58
398.32	229.57
398.70	229.64
399.07	229.74
399.45	229.80
399.82	229.87
400.20	229.93
400.58	230.01
400.95	230.03
401.33	230.15
401.70	230.38
402.08	230.52
402.45	230.65
402.83	230.81
403.20	230.99
403.58	231.11
403.95	231.31
404.33	231.51
404.71	231.72
405.08	232.03
405.46	232.28
405.83	232.55
406.21	232.83
406.58	233.16
406.96	233.48
407.33	233.85
407.70	234.26
408.08	234.80
408.45	235.29
408.83	235.83
409.20	236.31
409.58	236.75
409.95	237.36
410.33	238.02
410.70	238.65
411.08	239.37
411.45	240.15
411.82	240.94
412.20	241.85
412.57	242.92
412.95	243.77
413.32	244.88
413.69	246.02
414.07	247.23
414.44	248.56
414.82	249.91
415.19	251.49
415.56	253.10
415.94	254.78
416.31	256.66
416.68	258.55
417.06	260.73
417.43	262.78
417.81	265.12
418.18	267.52
418.55	270.14
418.93	272.88
419.30	275.73
419.67	278.76
420.04	281.89
420.42	285.15
420.79	288.92
421.16	292.71
421.54	296.58
421.91	300.59
422.28	304.76
422.66	309.26
423.03	313.54
423.40	318.02
423.77	322.81
424.15	327.71
424.52	332.79
424.89	338.29
425.26	343.74
425.64	348.83
426.01	354.52
426.38	360.35
426.75	366.33
427.13	372.44
427.50	378.82
427.87	385.43
428.24	392.09
428.61	398.47
428.99	405.34
429.36	412.91
429.73	420.17
430.10	427.40
430.47	434.77
430.85	442.42
431.22	450.55
431.59	458.91
431.96	467.04
432.33	476.10
432.70	484.72
433.08	494.96
433.45	504.60
433.82	514.03
434.19	524.59
434.56	534.99
434.93	545.05
435.30	555.07
435.68	566.39
436.05	577.48
436.42	588.59
436.79	598.73
437.16	609.66
437.53	621.43
437.90	633.23
438.27	644.75
438.64	657.13
439.01	668.44
439.38	678.89
439.75	688.96
440.13	700.42
440.50	711.30
440.87	719.93
441.24	729.46
441.61	739.93
441.98	747.65
442.35	756.78
442.72	766.15
443.09	775.17
443.46	781.16
443.83	785.62
444.20	789.28
444.57	794.68
444.94	798.01
445.31	801.31
445.68	804.16
446.05	806.31
446.42	806.17
446.79	805.81
447.16	805.46
447.53	805.28
447.90	802.07
448.27	798.94
448.64	793.98
449.01	790.69
449.37	783.63
449.74	777.29
450.11	769.00
450.48	759.82
450.85	750.51
451.22	742.40
451.59	734.58
451.96	727.59
452.33	717.32
452.70	708.10
453.07	696.97
453.43	685.86
453.80	675.03
454.17	664.69
454.54	655.02
454.91	644.11
455.28	633.74
455.65	623.91
456.02	613.64
456.38	605.31
456.75	594.56
457.12	585.89
457.49	577.12
457.86	568.90
458.23	561.68
458.59	553.67
458.96	545.50
459.33	538.30
459.70	530.96
460.07	525.29
460.43	518.64
460.80	512.40
461.17	506.94
461.54	501.13
461.91	495.65
462.27	490.08
462.64	485.55
463.01	480.35
463.38	475.17
463.74	470.45
464.11	466.33
464.48	462.60
464.85	458.55
465.21	455.42
465.58	451.96
465.95	448.01
466.32	444.86
466.68	441.76
467.05	438.65
467.42	435.59
467.78	432.37
468.15	429.39
468.52	427.21
468.88	424.35
469.25	421.71
469.62	419.64
469.98	417.36
470.35	415.30
470.72	413.47
471.08	411.58
471.45	410.00
471.82	408.20
472.18	406.34
472.55	405.13
472.92	403.66
473.28	402.48
473.65	401.22
474.02	400.06
474.38	399.09
474.75	398.49
475.11	397.63
475.48	397.22
475.85	396.81
476.21	396.60
476.58	396.44
476.94	396.61
477.31	396.64
477.67	396.78
478.04	397.09
478.41	397.48
478.77	398.08
479.14	398.42
479.50	399.18
479.87	400.14
480.23	401.10
480.60	402.01
480.96	402.95
481.33	404.33
481.69	405.69
482.06	407.06
482.42	408.34
482.79	409.89
483.15	411.72
483.52	413.80
483.88	415.78
484.25	417.88
484.61	420.11
484.98	422.47
485.34	425.14
485.71	427.91
486.07	430.87
486.44	433.76
486.80	437.08
487.17	440.41
487.53	444.09
487.90	447.92
488.26	452.11
488.62	456.51
488.99	460.93
489.35	465.62
489.72	470.64
490.08	475.90
490.44	481.27
490.81	486.82
491.17	492.46
491.54	498.52
491.90	504.71
492.26	511.31
492.63	518.23
492.99	525.38
493.36	532.83
493.72	540.67
494.08	548.65
494.45	557.00
494.81	565.80
495.17	574.77
495.54	584.23
495.90	594.09
496.26	604.23
496.63	614.58
496.99	625.28
497.35	636.40
497.72	647.89
498.08	659.82
498.44	672.01
498.80	684.99
499.17	698.27
499.53	711.99
499.89	726.05
500.26	740.24
500.62	754.75
500.98	769.90
501.34	785.23
501.71	801.28
502.07	817.61
502.43	834.36
502.79	851.24
503.16	868.61
503.52	886.21
503.88	904.26
504.24	922.80
504.60	941.58
504.97	960.79
505.33	980.47
505.69	1001.06
506.05	1021.73
506.41	1042.31
506.78	1063.23
507.14	1084.93
507.50	1107.09
507.86	1129.64
508.22	1152.33
508.59	1174.85
508.95	1198.21
509.31	1222.03
509.67	1246.49
510.03	1270.83
510.39	1295.56
510.75	1320.30
511.12	1345.13
511.48	1369.97
511.84	1394.89
512.20	1420.25
512.56	1446.03
512.92	1471.59
513.28	1496.90
513.64	1522.55
514.00	1548.23
514.37	1574.11
514.73	1599.70
515.09	1624.87
515.45	1650.34
515.81	1675.83
516.17	1701.34
516.53	1726.23
516.89	1751.08
517.25	1775.98
517.61	1800.74
517.97	1825.71
518.33	1850.27
518.69	1874.73
519.05	1899.34
519.41	1923.91
519.77	1948.38
520.13	1972.57
520.49	1996.62
520.85	2020.65
521.21	2044.56
521.57	2068.66
521.93	2091.69
522.29	2115.18
522.65	2138.24
523.01	2160.96
523.37	2182.91
523.73	2205.36
524.09	2227.93
524.45	2250.49
524.81	2272.18
525.17	2293.70
525.53	2314.51
525.89	2335.59
526.25	2356.26
526.61	2375.81
526.97	2395.50
527.33	2414.70
527.68	2433.07
528.04	2450.85
528.40	2467.58
528.76	2484.80
529.12	2500.89
529.48	2517.42
529.84	2532.77
530.20	2549.08
530.56	2564.36
530.91	2579.53
531.27	2593.72
531.63	2606.89
531.99	2619.82
532.35	2631.19
532.71	2642.59
533.07	2654.32
533.42	2664.53
533.78	2675.45
534.14	2686.59
534.50	2696.31
534.86	2706.19
535.21	2714.15
535.57	2722.21
535.93	2730.73
536.29	2738.09
536.65	2745.63
537.00	2751.04
537.36	2756.78
537.72	2760.92
538.08	2764.78
538.44	2767.79
538.79	2771.08
539.15	2773.82
539.51	2775.93
539.87	2778.76
540.22	2779.44
540.58	2780.58
540.94	2781.31
541.29	2780.67
541.65	2778.57
542.01	2776.49
542.37	2773.40
542.72	2772.05
543.08	2769.35
543.44	2766.38
543.79	2761.67
544.15	2756.89
544.51	2752.89
544.87	2746.86
545.22	2740.33
545.58	2734.07
545.94	2728.52
546.29	2721.28
546.65	2713.29
547.01	2705.43
547.36	2697.12
547.72	2688.80
548.07	2679.30
548.43	2669.63
548.79	2658.81
549.14	2649.02
549.50	2639.12
549.86	2628.64
550.21	2616.29
550.57	2605.25
550.92	2592.44
551.28	2580.34
551.64	2568.41
551.99	2556.59
552.35	2544.93
552.70	2532.93
553.06	2521.24
553.41	2508.38
553.77	2495.18
554.13	2482.29
554.48	2468.50
554.84	2454.26
555.19	2440.96
555.55	2426.86
555.90	2412.90
556.26	2399.96
556.61	2386.22
556.97	2371.53
557.32	2357.15
557.68	2342.93
558.03	2328.20
558.39	2314.31
558.74	2300.68
559.10	2284.94
559.45	2269.79
559.81	2255.29
560.16	2240.48
560.52	2225.33
560.87	2211.03
561.23	2196.29
561.58	2181.83
561.94	2166.70
562.29	2151.70
562.64	2136.61
563.00	2121.63
563.35	2107.29
563.71	2092.69
564.06	2077.70
564.42	2063.18
564.77	2048.72
565.12	2034.72
565.48	2020.58
565.83	2006.08
566.19	1991.70
566.54	1977.87
566.89	1962.77
567.25	1947.23
567.60	1932.91
567.96	1917.99
568.31	1902.53
568.66	1887.90
569.02	1873.33
569.37	1858.89
569.72	1844.76
570.08	1830.52
570.43	1816.18
570.78	1801.07
571.14	1785.91
571.49	1771.22
571.84	1757.30
572.20	1742.09
572.55	1727.10
572.90	1711.51
573.26	1696.03
573.61	1680.23
573.96	1665.08
574.31	1650.58
574.67	1636.59
575.02	1621.64
575.37	1606.52
575.72	1591.24
576.08	1576.32
576.43	1561.46
576.78	1546.66
577.13	1531.93
577.49	1517.19
577.84	1502.48
578.19	1487.91
578.54	1473.41
578.90	1458.75
579.25	1443.64
579.60	1429.69
579.95	1415.67
580.30	1401.91
580.66	1388.19
581.01	1374.63
581.36	1360.91
581.71	1347.11
582.06	1333.35
582.42	1319.79
582.77	1306.57
583.12	1293.69
583.47	1280.65
583.82	1267.70
584.17	1254.76
584.53	1241.85
584.88	1229.36
585.23	1216.58
585.58	1204.17
585.93	1191.77
586.28	1179.95
586.63	1168.03
586.98	1155.98
587.34	1144.28
587.69	1132.39
588.04	1120.84
588.39	1109.46
588.74	1097.94
589.09	1086.83
589.44	1075.17
589.79	1064.12
590.14	1053.21
590.49	1042.38
590.84	1031.83
591.19	1021.36
591.54	1010.93
591.89	1000.28
592.25	989.68
592.60	979.11
592.95	968.74
593.30	958.42
593.65	948.06
594.00	937.94
594.35	928.48
594.70	918.58
595.05	909.33
595.40	899.88
595.75	890.31
596.10	881.26
596.45	872.03
596.80	863.22
597.15	854.38
597.50	845.55
597.85	837.08
598.19	828.52
598.54	819.97
598.89	811.60
599.24	803.64
599.59	795.77
599.94	788.35
600.29	780.69
600.64	773.17
600.99	765.65
601.34	758.34
601.69	750.46
602.04	743.17
602.39	735.98
602.74	729.01
603.08	722.10
603.43	715.22
603.78	708.46
604.13	701.86
604.48	695.23
604.83	688.86
605.18	682.44
605.53	676.17
605.87	669.77
606.22	663.64
606.57	657.48
606.92	651.19
607.27	645.07
607.62	639.32
607.96	633.63
608.31	628.19
608.66	622.60
609.01	617.30
609.36	612.21
609.70	607.00
610.05	601.77
610.40	596.68
610.75	591.50
611.10	586.66
611.44	581.77
611.79	576.99
612.14	572.15
612.49	567.33
612.83	562.73
613.18	558.37
613.53	554.02
613.88	549.68
614.22	545.57
614.57	541.33
614.92	537.13
615.27	533.08
615.61	529.01
615.96	525.13
616.31	521.21
616.65	517.28
617.00	513.47
617.35	509.73
617.70	506.09
618.04	502.60
618.39	499.05
618.74	495.62
619.08	492.17
619.43	488.79
619.78	485.54
620.12	482.29
620.47	479.20
620.82	476.10
621.16	473.09
621.51	470.21
621.85	467.39
622.20	464.61
622.55	461.81
622.89	459.09
623.24	456.46
623.59	453.87
623.93	451.35
624.28	448.92
624.62	446.71
624.97	444.48
625.32	442.10
625.66	439.72
626.01	437.40
626.35	435.24
626.70	433.05
627.04	431.02
627.39	428.89
627.73	426.81
628.08	424.82
628.43	422.88
628.77	420.89
629.12	419.03
629.46	417.13
629.81	415.36
630.15	413.53
630.50	411.72
630.84	409.98
631.19	408.31
631.53	406.67
631.88	404.85
632.22	403.10
632.57	401.71
632.91	400.28
633.26	398.91
633.60	397.47
633.95	396.13
634.29	394.65
634.64	393.26
634.98	391.75
635.32	390.41
635.67	389.12
636.01	387.85
636.36	386.62
636.70	385.52
637.05	384.28
637.39	383.16
637.73	382.05
638.08	380.97
638.42	379.87
638.77	378.69
639.11	377.48
639.45	376.37
639.80	375.20
640.14	374.08
640.49	372.92
640.83	371.80
641.17	370.70
641.52	369.63
641.86	368.62
642.20	367.76
642.55	366.70
642.89	365.71
643.23	364.70
643.58	363.80
643.92	362.75
644.26	361.78
644.61	360.87
644.95	359.93
645.29	359.00
645.64	358.04
645.98	357.14
646.32	356.32
646.66	355.45
647.01	354.55
647.35	353.72
647.69	352.89
648.04	352.12
648.38	351.28
648.72	350.51
649.06	349.76
649.41	348.94
649.75	348.18
650.09	347.46
650.43	346.73
650.78	345.94
651.12	345.20
651.46	344.48
651.80	343.77
652.14	343.06
652.49	342.38
652.83	341.66
653.17	340.99
653.51	340.32
653.85	339.72
654.20	339.11
654.54	338.39
654.88	337.73
655.22	337.10
655.56	336.43
655.90	335.75
656.25	335.10
656.59	334.46
656.93	333.88
657.27	333.32
657.61	332.68
657.95	332.11
658.29	331.53
658.64	331.01
658.98	330.41
659.32	329.83
659.66	329.25
660.00	328.71
660.34	328.16
660.68	327.59
661.02	326.96
661.36	326.36
661.70	325.82
662.05	325.28
662.39	324.78
662.73	324.35
663.07	323.95
663.41	323.45
663.75	322.92
664.09	322.38
664.43	321.77
664.77	321.28
665.11	320.70
665.45	320.18
665.79	319.64
666.13	319.09
666.47	318.56
666.81	318.01
667.15	317.43
667.49	316.95
667.83	316.52
668.17	316.07
668.51	315.64
668.85	315.21
669.19	314.84
669.53	314.33
669.87	313.81
670.21	313.32
670.55	312.84
670.89	312.50
671.23	312.06
671.57	311.65
671.91	311.27
672.25	310.90
672.58	310.54
672.92	310.09
673.26	309.70
673.60	309.31
673.94	308.91
674.28	308.56
674.62	308.20
674.96	307.73
675.30	307.34
675.64	306.93
675.97	306.49
676.31	305.99
676.65	305.56
676.99	305.22
677.33	304.77
677.67	304.35
678.01	303.81
678.34	303.39
678.68	302.98
679.02	302.51
679.36	302.07
679.70	301.62
680.04	301.18
680.37	300.76
680.71	300.34
681.05	299.96
681.39	299.52
681.73	299.03
682.06	298.58
682.40	298.16
682.74	297.78
683.08	297.43
683.42	297.00
683.75	296.59
684.09	296.07
684.43	295.62
684.77	295.17
685.10	294.78
685.44	294.40
685.78	293.99
686.12	293.60
686.45	293.17
686.79	292.70
687.13	292.31
687.46	291.87
687.80	291.45
688.14	290.96
688.48	290.52
688.81	290.12
689.15	289.77
689.49	289.31
689.82	288.84
690.16	288.33
690.50	287.91
690.83	287.48
691.17	287.02
691.51	286.61
691.84	286.24
692.18	285.82
692.52	285.35
692.85	284.91
693.19	284.56
693.52	284.16
693.86	283.77
694.20	283.35
694.53	282.95
694.87	282.51
695.21	282.09
695.54	281.69
695.88	281.24
696.21	280.74
696.55	280.33
696.88	279.92
697.22	279.50
697.56	279.11
697.89	278.66
698.23	278.28
698.56	277.84
698.90	277.43
699.23	276.99
699.57	276.59
699.90	276.16
700.24	275.68
700.58	275.28
700.91	274.92
701.25	274.68
701.58	274.36
701.92	274.03
702.25	273.67
702.59	273.28
702.92	272.91
703.26	272.52
703.59	272.14
703.93	271.90
704.26	271.55
704.60	271.17
704.93	270.77
705.26	270.38
705.60	270.05
705.93	269.62
706.27	269.30
706.60	268.97
706.94	268.67
707.27	268.28
707.61	267.90
707.94	267.50
708.27	266.96
708.61	266.52
708.94	266.13
709.28	265.77
709.61	265.40
709.94	265.08
710.28	264.77
710.61	264.48
710.95	264.01
711.28	263.78
711.61	263.45
711.95	263.17
712.28	262.84
712.61	262.49
712.95	262.26
713.28	262.01
713.61	261.66
713.95	261.30
714.28	261.00
714.61	260.67
714.95	260.37
715.28	260.06
715.61	259.78
715.95	259.50
716.28	259.20
716.61	258.93
716.95	258.60
717.28	258.29
717.61	257.96
717.94	257.66
718.28	257.27
718.61	256.99
718.94	256.68
719.27	256.40
719.61	256.17
719.94	255.87
720.27	255.51
720.60	255.26
720.94	255.01
721.27	254.76
721.60	254.54
721.93	254.28
722.27	254.09
722.60	253.87
722.93	253.59
723.26	253.34
723.59	253.09
723.93	252.87
724.26	252.67
724.59	252.44
724.92	252.23
725.25	252.04
725.59	251.82
725.92	251.63
726.25	251.42
726.58	251.20
726.91	250.95
727.24	250.75
727.57	250.53
727.91	250.27
728.24	250.09
728.57	249.87
728.90	249.69
729.23	249.43
729.56	249.31
729.89	249.12
730.22	248.92
730.55	248.72
730.89	248.52
731.22	248.30
731.55	248.10
731.88	247.91
732.21	247.69
732.54	247.49
732.87	247.30
733.20	247.13
733.53	246.94
733.86	246.78
734.19	246.60
734.52	246.46
734.85	246.44
735.18	246.24
735.51	246.14
735.84	245.97
736.17	245.87
736.50	245.59
736.83	245.63
737.16	245.46
737.49	245.30
737.82	245.14
738.15	245.01
738.48	244.85
738.81	244.69
739.14	244.53
739.47	244.37
739.80	244.21
740.13	244.08
740.46	243.90
740.79	243.74
741.12	243.58
741.45	243.39
741.78	243.15
742.11	243.05
742.44	242.85
742.77	242.72
743.10	242.54
743.43	242.40
743.75	242.08
744.08	242.21
744.41	242.07
744.74	241.92
745.07	241.75
745.40	241.66
745.73	241.60
746.06	241.47
746.39	241.36
746.71	241.22
747.04	241.06
747.37	240.93
747.70	240.83
748.03	240.71
748.36	240.62
748.68	240.49
749.01	240.33
749.34	240.22
749.67	240.12
750.00	240.03
750.33	240.05
750.65	239.95
750.98	239.58
751.31	239.49
751.64	239.39
751.97	239.37
752.29	239.23
752.62	239.02
752.95	238.90
753.28	238.76
753.60	238.64
753.93	238.57
754.26	238.49
754.59	238.32
754.91	238.20
755.24	238.07
755.57	237.96
755.90	237.85
756.22	237.72
756.55	237.56
756.88	237.41
757.20	237.20
757.53	237.05
757.86	236.95
758.19	236.85
758.51	236.75
758.84	236.57
759.17	236.46
759.49	236.38
759.82	236.38
760.15	236.31
760.47	236.22
760.80	236.08
761.13	236.02
761.45	235.92
761.78	235.84
762.11	235.76
762.43	235.66
762.76	235.58
763.08	235.51
763.41	235.45
763.74	235.39
764.06	235.29
764.39	235.22
764.71	235.13
765.04	235.03
765.37	234.93
765.69	234.86
766.02	234.80
766.34	234.72
766.67	234.58
767.00	234.54
767.32	234.57
767.65	234.62
767.97	234.53
768.30	234.47
768.62	234.41
768.95	234.32
769.27	234.25
769.60	234.22
769.92	234.12
770.25	234.02
770.57	233.93
770.90	233.89
771.22	233.82
771.55	233.78
771.87	233.75
772.20	233.69
772.52	233.78
772.85	233.94
773.17	233.89
773.50	233.82
773.82	233.73
774.15	233.59
774.47	233.42
774.80	233.35
775.12	233.30
775.45	233.26
775.77	233.22
776.09	233.19
776.42	233.15
776.74	233.17
777.07	233.13
777.39	233.09
777.72	233.03
778.04	233.01
778.36	232.94
778.69	232.89
779.01	232.86
779.33	232.67
779.66	232.42
779.98	232.37
780.31	232.35
780.63	232.38
780.95	232.39
781.28	232.36
781.60	232.32
781.92	232.30
782.25	232.26
782.57	232.23
782.89	232.18
783.22	232.13
783.54	232.05
783.86	232.02
784.19	231.99
784.51	232.00
784.83	231.95
785.16	231.91
785.48	231.89
785.80	231.86
786.12	231.83
786.45	231.81
786.77	231.80
787.09	231.75
787.42	231.66
787.74	231.62
788.06	231.60
788.38	231.57
788.71	231.52
789.03	231.48
789.35	231.47
789.67	231.42
789.99	231.41
790.32	231.37
790.64	231.36
790.96	231.49
791.28	231.41
791.61	231.38
791.93	231.38
792.25	231.34
792.57	231.42
792.89	231.38
793.21	231.37
793.54	231.32
793.86	231.29
794.18	231.27
794.50	231.21
794.82	231.17
795.14	231.17
795.47	231.18
795.79	231.17
796.11	231.10
796.43	231.06
796.75	231.03
797.07	231.02
797.39	230.98
797.71	230.81
798.04	230.79
798.36	230.79
798.68	230.76
799.00	230.75
799.32	230.64
799.64	230.64
799.96	230.62
800.28	230.64
800.60	230.61
800.92	230.60
801.24	230.58
801.56	230.58
801.89	230.55
802.21	230.54
802.53	230.49
802.85	230.51
803.17	230.58
803.49	230.53
803.81	230.50
804.13	230.48
804.45	230.43
804.77	230.43
805.09	230.41
805.41	230.38
805.73	230.32
806.05	230.27
806.37	230.24
806.69	230.20
807.01	230.16
807.33	230.16
807.65	230.08
807.97	230.13
808.28	230.09
808.60	230.07
808.92	230.03
809.24	230.12
809.56	230.07
809.88	230.00
810.20	230.00
810.52	230.02
810.84	229.98
811.16	229.96
811.48	229.93
811.80	229.98
812.12	229.96
812.43	229.98
812.75	229.99
813.07	229.96
813.39	229.97
813.71	229.93
814.03	229.91
814.35	229.91
814.67	229.83
814.98	229.81
815.30	229.80
815.62	229.76
815.94	229.64
816.26	229.65
816.58	229.61
816.89	229.62
817.21	229.57
817.53	229.59
817.85	229.58
818.17	229.57
818.48	229.50
818.80	229.53
819.12	229.49
819.44	229.44
819.76	229.41
820.07	229.40
820.39	229.40
820.71	229.40
821.03	229.39
821.34	229.38
821.66	229.39
821.98	229.40
822.30	229.39
822.61	229.49
822.93	229.45
823.25	229.44
823.57	229.41
823.88	229.42
824.20	229.40
824.52	229.41
824.83	229.40
825.15	229.38
825.47	229.36
825.79	229.37
826.10	229.36
826.42	229.35
826.74	229.35
827.05	229.33
827.37	229.33
827.69	229.32
828.00	229.31
828.32	229.30
828.64	229.28
828.95	229.36
829.27	229.29
829.58	229.28
829.90	229.31
830.22	229.32
830.53	229.29
830.85	229.27
831.17	229.23
831.48	229.22
831.80	229.22
832.11	229.20
832.43	229.16
832.75	229.15
833.06	229.25
833.38	229.21
833.69	229.20
834.01	229.20
834.32	229.18
834.64	229.16
834.96	229.16
835.27	229.15
835.59	229.07
835.90	229.05
836.22	229.05
836.53	229.00
836.85	228.97
837.16	229.15
837.48	229.14
837.79	229.19
838.11	229.19
838.42	229.19
838.74	229.19
839.05	229.18
839.37	229.17
839.68	229.04
840.00	229.02
840.31	229.04
840.63	229.01
840.94	229.00
841.26	228.99
841.57	228.98
841.88	228.99
842.20	228.98
842.51	228.94
842.83	228.93
843.14	229.09
843.46	229.07
843.77	228.96
844.08	228.94
844.40	228.88
844.71	228.86
845.03	228.84
845.34	228.83
845.65	228.83
845.97	228.83
846.28	228.84
846.60	228.85
846.91	228.82
847.22	228.81
847.54	228.85
847.85	228.85
848.16	228.81
848.48	228.78
848.79	228.84
849.10	228.87
849.42	228.88
849.73	228.71
850.04	228.71
850.36	228.65
850.67	228.67
850.98	228.68
851.30	228.69
851.61	228.68
851.92	228.67
852.23	228.71
852.55	228.72
852.86	228.72
853.17	228.74
853.49	228.77
853.80	228.79
854.11	228.81
854.42	228.83
854.74	228.81
855.05	228.81
855.36	228.72
855.67	228.71
855.99	228.70
856.30	228.90
856.61	228.89
856.92	228.89
857.23	228.89
857.55	228.87
857.86	228.85
858.17	228.87
858.48	228.85
858.79	228.81
859.11	228.81
859.42	228.79
859.73	228.76
860.04	228.76
860.35	228.71
860.66	228.65
860.98	228.63
861.29	228.67
861.60	228.65
861.91	228.69
862.22	228.67
862.53	228.63
862.84	228.42
863.16	228.46
863.47	228.43
863.78	228.40
864.09	228.41
864.40	228.43
864.71	228.43
865.02	228.45
865.33	228.44
865.64	228.42
865.95	228.43
866.27	228.54
866.58	228.52
866.89	228.54
867.20	228.54
867.51	228.52
867.82	228.50
868.13	228.54
868.44	228.50
868.75	228.54
869.06	228.56
869.37	228.60
869.68	228.55
869.99	228.59
870.30	228.60
870.61	228.62
870.92	228.59
871.23	228.57
871.54	228.60
871.85	228.63
872.16	228.65
872.47	228.64
872.78	228.54
873.09	228.56
873.40	228.54
873.71	228.55
874.02	228.57
874.33	228.55
874.64	228.51
874.95	228.55
875.26	228.50
875.56	228.49
875.87	228.48
876.18	228.48
876.49	228.64
876.80	228.62
877.11	228.58
877.42	228.59
877.73	228.59
878.04	228.56
878.35	228.55
878.66	228.55
878.96	228.54
879.27	228.53
879.58	228.51
879.89	228.50
880.20	228.55
880.51	228.55
880.82	228.55
881.12	228.57
881.43	228.53
881.74	228.52
882.05	228.51
882.36	228.51
882.67	228.52
882.97	228.33
883.28	228.32
883.59	228.32
883.90	228.33
884.21	228.36
884.51	228.35
884.82	228.33
885.13	228.31
885.44	228.32
885.74	228.33
886.05	228.33
886.36	228.33
886.67	228.25
886.98	228.34
887.28	228.35
887.59	228.34
887.90	228.34
888.20	228.34
888.51	228.38
888.82	228.35
889.13	228.36
889.43	228.51
889.74	228.51
890.05	228.51
890.35	228.49
890.66	228.45
890.97	228.43
891.28	228.41
891.58	228.43
891.89	228.42
892.20	228.41
892.50	228.38
892.81	228.37
893.12	228.37
893.42	228.28
893.73	228.28
894.04	228.29
894.34	228.31
894.65	228.31
894.95	228.28
895.26	228.30
895.57	228.37
895.87	228.20
896.18	228.24
896.48	228.24
896.79	228.24
897.10	228.27
897.40	228.28
897.71	228.30
898.01	228.26
898.32	228.28
898.63	228.27
898.93	228.30
899.24	228.29
899.54	228.29
899.85	228.28
900.15	228.27
900.46	228.26
900.76	228.27
901.07	228.26
901.38	228.26
901.68	228.28
901.99	228.19
902.29	228.20
902.60	228.17
902.90	228.16
903.21	228.15
903.51	228.14
903.82	228.17
904.12	228.19
904.43	228.20
904.73	228.19
905.03	228.20
905.34	228.36
905.64	228.37
905.95	228.36
906.25	228.36
906.56	228.35
906.86	228.35
907.17	228.33
907.47	228.33
907.77	228.32
908.08	228.28
908.38	228.29
908.69	228.30
908.99	228.32
909.30	228.33
909.60	228.33
909.90	228.33
910.21	228.28
910.51	228.24
910.81	228.24
911.12	228.25
911.42	228.26
911.73	228.07
912.03	228.08
912.33	228.11
912.64	228.10
912.94	228.08
913.24	228.05
913.55	228.04
913.85	228.04
914.15	228.06
914.46	228.09
914.76	228.07
915.06	228.05
915.37	228.03
915.67	228.02
915.97	228.03
916.27	228.00
916.58	228.00
916.88	228.01
917.18	227.99
917.49	228.12
917.79	228.11
918.09	228.14
918.39	228.19
918.70	228.18
919.00	228.19
919.30	228.28
919.60	228.28
919.91	228.27
920.21	228.27
920.51	228.23
920.81	228.22
921.12	228.24
921.42	228.24
921.72	228.25
922.02	228.26
922.32	228.28
922.63	228.29
922.93	228.38
923.23	228.39
923.53	228.38
923.83	228.26
924.13	228.27
924.44	228.26
924.74	228.28
925.04	228.31
925.34	228.31
925.64	228.23
925.94	228.23
926.24	228.34
926.55	228.32
926.85	228.34
927.15	228.34
927.45	228.33
927.75	228.33
928.05	228.33
928.35	228.31
928.65	228.33
928.95	228.34
929.26	228.25
929.56	228.29
929.86	228.31
930.16	228.29
930.46	228.28
930.76	228.29
931.06	228.21
931.36	228.17
931.66	228.21
931.96	228.23
932.26	228.23
932.56	228.15
932.86	228.17
933.16	228.16
933.46	228.16
933.76	228.13
934.06	228.17
934.36	228.23
934.66	228.23
934.96	228.21
935.26	228.23
935.56	228.25
935.86	228.20
936.16	228.17
936.46	228.16
936.76	228.14
937.06	228.12
937.36	228.13
937.66	228.13
937.96	228.11
938.26	228.07
938.56	228.06
938.86	228.06
939.16	228.10
939.46	228.12
939.76	228.13
940.06	228.14
940.35	228.10
940.65	228.01
940.95	228.02
941.25	227.98
941.55	227.96
941.85	227.96
942.15	227.99
942.45	228.05
942.75	228.05
943.04	228.06
943.34	228.09
943.64	228.08
943.94	228.04
944.24	228.04
944.54	228.06
944.84	228.05
945.13	228.03
945.43	228.00
945.73	227.98
946.03	227.96
946.33	227.94
946.62	227.93
946.92	227.93
947.22	227.94
947.52	227.96
947.82	227.97
948.11	227.95
948.41	227.91
948.71	227.87
949.01	227.88
949.31	227.86
949.60	227.85
949.90	227.89
950.20	227.89
950.50	227.88
950.79	227.87
951.09	227.90
951.39	227.89
951.69	227.87
951.98	227.91
952.28	227.92
952.58	227.93
952.87	227.93
953.17	227.96
953.47	227.94
953.76	227.94
954.06	227.90
954.36	227.88
954.66	227.89
954.95	227.93
955.25	227.95
955.55	227.97
955.84	227.94
956.14	227.95
956.44	227.96
956.73	227.94
957.03	227.95
957.32	227.96
957.62	227.96
957.92	228.00
958.21	227.97
958.51	228.18
958.81	228.20
959.10	228.22
959.40	228.25
959.69	228.26
959.99	228.29
960.29	228.30
960.58	228.29
960.88	228.36
961.17	228.34
961.47	228.35
961.76	228.33
962.06	228.36
962.36	228.33
962.65	228.34
962.95	228.35
963.24	228.33
963.54	228.33
963.83	228.35
964.13	228.34
964.42	228.32
964.72	228.17
965.01	228.18
965.31	228.16
965.60	228.12
965.90	228.24
966.19	228.20
966.49	228.21
966.78	228.21
967.08	228.18
967.37	228.18
967.67	228.15
967.96	228.18
968.26	228.18
968.55	228.20
968.85	228.19
969.14	228.19
969.43	228.21
969.73	228.19
970.02	228.17
970.32	228.16
970.61	228.14
970.91	228.10
971.20	228.07
971.49	228.08
971.79	228.10
972.08	227.96
972.38	227.98
972.67	227.97
972.96	228.01
973.26	227.96
973.55	228.02
973.85	228.01
974.14	228.00
974.43	228.01
974.73	227.98
975.02	227.97
975.31	227.96
975.61	227.95
975.90	227.94
976.19	227.93
976.49	227.93
976.78	227.95
977.07	227.94
977.37	227.94
977.66	227.96
977.95	227.93
978.24	227.95
978.54	227.97
978.83	227.95
979.12	227.93
979.42	227.94
979.71	227.91
980.00	227.91
980.29	227.92
980.59	227.88
980.88	227.92
981.17	227.91
981.46	227.93
981.76	227.93
982.05	227.99
982.34	228.01
982.63	228.01
982.93	228.00
983.22	228.05
983.51	228.06
983.80	228.08
984.09	228.10
984.39	228.08
984.68	228.06
984.97	228.07
985.26	228.07
985.55	228.09
985.85	228.05
986.14	228.07
986.43	228.08
986.72	228.07
987.01	228.02
987.30	228.02
987.59	228.00
987.89	228.01
988.18	227.95
988.47	227.94
988.76	227.92
989.05	227.90
989.34	227.85
989.63	227.90
989.92	227.87
990.22	227.83
990.51	227.83
990.80	227.82
991.09	227.83
991.38	227.85
991.67	227.82
991.96	227.81
992.25	227.82
992.54	227.78
992.83	227.79
993.12	227.79
993.41	227.82
993.70	227.89
993.99	227.91
994.28	227.93
994.58	227.95
994.87	227.93
995.16	227.94
995.45	227.93
995.74	227.87
996.03	227.90
996.32	227.93
996.61	227.96
996.90	227.95
997.19	227.94
997.48	227.94
997.77	227.93
998.06	227.94
998.34	227.91
998.63	227.91
998.92	227.92
999.21	227.94
999.50	227.94
999.79	227.87
1000.08	227.86
1000.37	227.86
1000.66	227.84
1000.95	227.87
1001.24	227.89
1001.53	227.92
1001.82	227.91
1002.11	227.88
1002.40	227.89
1002.68	227.93
1002.97	228.05
1003.26	228.04
1003.55	228.01
1003.84	228.02
1004.13	228.08
1004.42	228.08
1004.71	228.09
1004.99	228.08
1005.28	228.12
1005.57	228.11
1005.86	228.10
1006.15	228.09
1006.44	228.07
1006.72	228.09
1007.01	228.07
1007.30	228.07
1007.59	228.04
1007.88	228.04
1008.17	228.03
1008.45	227.99
1008.74	227.91
1009.03	227.84
1009.32	227.84
1009.60	227.85
1009.89	227.83
1010.18	227.75
1010.47	227.74
1010.76	227.74
1011.04	227.73
1011.33	227.72
1011.62	227.74
1011.91	227.75
1012.19	227.75
1012.48	227.75
1012.77	227.75
1013.05	227.82
1013.34	227.83
1013.63	227.83
1013.92	227.84
1014.20	227.84
1014.49	227.86
1014.78	227.89
1015.06	227.83
1015.35	227.83
1015.64	227.85
1015.92	227.89
1016.21	227.90
1016.50	227.90
1016.78	227.93
1017.07	227.95
1017.36	227.91
1017.64	227.89
1017.93	227.90
1018.22	227.89
1018.50	227.88
1018.79	227.87
1019.08	227.80
1019.36	227.80
1019.65	227.78
1019.93	227.82
1020.22	227.85
1020.51	227.93
1020.79	227.90
1021.08	227.63
1021.36	227.39
1021.65	227.95
1021.94	227.70
1022.22	227.78
1022.51	227.38
1022.79	228.72
1023.08	228.15
1023.36	229.73
1023.65	227.39
>>>>>End Processed Spectral Data<<<<<
