SpectraSuite Data File
++++++++++++++++++++++++++++++++++++
Date: Tue Oct 06 13:09:41 EDT 2015
User: lab3
Dark Spectrum Present: No
Reference Spectrum Present: No
Number of Sampled Component Spectra: 1
Spectrometers: USB2E7196
Integration Time (usec): 66000 (USB2E7196)
Spectra Averaged: 1000 (USB2E7196)
Boxcar Smoothing: 10 (USB2E7196)
Correct for Electrical Dark: No (USB2E7196)
Strobe/Lamp Enabled: No (USB2E7196)
Correct for Detector Non-linearity: No (USB2E7196)
Correct for Stray Light: No (USB2E7196)
Number of Pixels in Processed Spectrum: 2048
>>>>>Begin Processed Spectral Data<<<<<
339.09	0.00
339.48	216.80
339.86	218.14
340.24	219.50
340.63	221.04
341.01	225.20
341.39	223.68
341.78	225.41
342.16	226.57
342.54	226.86
342.93	215.23
343.31	226.10
343.69	226.63
344.07	227.11
344.46	227.56
344.84	227.97
345.22	228.16
345.60	228.43
345.99	228.62
346.37	228.76
346.75	228.87
347.13	228.95
347.52	229.04
347.90	229.16
348.28	229.20
348.66	229.28
349.05	229.26
349.43	229.32
349.81	229.38
350.19	229.44
350.57	229.51
350.96	229.61
351.34	229.70
351.72	229.80
352.10	229.91
352.48	229.97
352.87	230.02
353.25	230.07
353.63	230.13
354.01	230.18
354.39	230.25
354.77	230.32
355.15	230.44
355.54	230.46
355.92	230.47
356.30	230.54
356.68	230.71
357.06	230.79
357.44	230.82
357.82	230.87
358.20	231.08
358.58	231.12
358.97	231.18
359.35	231.27
359.73	231.36
360.11	231.40
360.49	231.45
360.87	231.49
361.25	231.55
361.63	231.65
362.01	231.71
362.39	231.73
362.77	231.77
363.15	231.79
363.53	231.82
363.91	231.86
364.29	231.88
364.67	231.73
365.05	231.75
365.43	231.80
365.81	231.84
366.19	231.78
366.57	231.88
366.95	231.87
367.33	231.83
367.71	231.82
368.09	231.86
368.47	231.85
368.85	231.84
369.23	231.88
369.61	231.81
369.99	231.85
370.37	231.86
370.75	231.97
371.13	231.94
371.51	231.89
371.89	231.88
372.27	231.87
372.65	231.84
373.03	231.80
373.41	231.75
373.78	231.70
374.16	231.57
374.54	231.47
374.92	231.41
375.30	231.39
375.68	231.31
376.06	231.26
376.44	231.20
376.82	231.15
377.19	231.09
377.57	231.05
377.95	230.94
378.33	230.89
378.71	230.68
379.09	230.63
379.47	230.62
379.84	230.55
380.22	230.47
380.60	230.40
380.98	230.35
381.36	230.30
381.73	230.24
382.11	230.23
382.49	230.19
382.87	230.13
383.25	230.08
383.62	230.24
384.00	230.17
384.38	230.14
384.76	230.14
385.13	230.15
385.51	230.11
385.89	230.04
386.27	230.02
386.64	230.02
387.02	229.98
387.40	229.93
387.78	229.92
388.15	229.91
388.53	229.89
388.91	229.87
389.29	229.85
389.66	229.85
390.04	229.81
390.42	229.83
390.79	229.84
391.17	229.83
391.55	229.62
391.92	229.63
392.30	229.65
392.68	229.61
393.05	229.60
393.43	229.61
393.81	229.63
394.18	229.62
394.56	229.62
394.94	229.67
395.31	229.68
395.69	229.75
396.06	229.80
396.44	229.85
396.82	229.87
397.19	229.99
397.57	230.02
397.95	230.08
398.32	230.07
398.70	230.13
399.07	230.22
399.45	230.28
399.82	230.34
400.20	230.40
400.58	230.50
400.95	230.52
401.33	230.64
401.70	230.87
402.08	231.01
402.45	231.14
402.83	231.31
403.20	231.49
403.58	231.61
403.95	231.81
404.33	232.02
404.71	232.23
405.08	232.53
405.46	232.77
405.83	233.05
406.21	233.34
406.58	233.66
406.96	233.98
407.33	234.34
407.70	234.76
408.08	235.32
408.45	235.82
408.83	236.35
409.20	236.83
409.58	237.27
409.95	237.88
410.33	238.54
410.70	239.15
411.08	239.88
411.45	240.67
411.82	241.46
412.20	242.36
412.57	243.41
412.95	244.26
413.32	245.37
413.69	246.51
414.07	247.71
414.44	249.03
414.82	250.38
415.19	251.97
415.56	253.57
415.94	255.24
416.31	257.10
416.68	258.98
417.06	261.19
417.43	263.23
417.81	265.58
418.18	267.97
418.55	270.59
418.93	273.31
419.30	276.15
419.67	279.17
420.04	282.27
420.42	285.54
420.79	289.29
421.16	293.08
421.54	296.92
421.91	300.94
422.28	305.09
422.66	309.56
423.03	313.82
423.40	318.29
423.77	323.07
424.15	327.96
424.52	333.02
424.89	338.51
425.26	343.96
425.64	349.02
426.01	354.68
426.38	360.48
426.75	366.44
427.13	372.51
427.50	378.89
427.87	385.49
428.24	392.12
428.61	398.49
428.99	405.33
429.36	412.88
429.73	420.12
430.10	427.33
430.47	434.69
430.85	442.33
431.22	450.47
431.59	458.77
431.96	466.87
432.33	475.90
432.70	484.47
433.08	494.67
433.45	504.27
433.82	513.70
434.19	524.25
434.56	534.62
434.93	544.68
435.30	554.67
435.68	565.98
436.05	577.02
436.42	588.09
436.79	598.20
437.16	609.12
437.53	620.85
437.90	632.65
438.27	644.13
438.64	656.47
439.01	667.71
439.38	678.15
439.75	688.20
440.13	699.61
440.50	710.47
440.87	719.10
441.24	728.59
441.61	739.04
441.98	746.71
442.35	755.80
442.72	765.13
443.09	774.08
443.46	780.04
443.83	784.48
444.20	788.13
444.57	793.49
444.94	796.80
445.31	800.09
445.68	802.89
446.05	805.04
446.42	804.89
446.79	804.51
447.16	804.16
447.53	803.99
447.90	800.80
448.27	797.67
448.64	792.70
449.01	789.44
449.37	782.38
449.74	776.06
450.11	767.82
450.48	758.66
450.85	749.43
451.22	741.35
451.59	733.55
451.96	726.62
452.33	716.41
452.70	707.23
453.07	696.12
453.43	685.05
453.80	674.28
454.17	663.97
454.54	654.35
454.91	643.47
455.28	633.12
455.65	623.34
456.02	613.11
456.38	604.80
456.75	594.07
457.12	585.44
457.49	576.70
457.86	568.49
458.23	561.31
458.59	553.30
458.96	545.17
459.33	538.00
459.70	530.67
460.07	524.98
460.43	518.35
460.80	512.11
461.17	506.67
461.54	500.85
461.91	495.40
462.27	489.85
462.64	485.32
463.01	480.15
463.38	474.99
463.74	470.28
464.11	466.16
464.48	462.44
464.85	458.40
465.21	455.27
465.58	451.81
465.95	447.88
466.32	444.72
466.68	441.63
467.05	438.51
467.42	435.47
467.78	432.26
468.15	429.31
468.52	427.14
468.88	424.27
469.25	421.64
469.62	419.55
469.98	417.27
470.35	415.21
470.72	413.38
471.08	411.48
471.45	409.90
471.82	408.13
472.18	406.29
472.55	405.08
472.92	403.62
473.28	402.45
473.65	401.19
474.02	400.04
474.38	399.05
474.75	398.46
475.11	397.60
475.48	397.19
475.85	396.77
476.21	396.57
476.58	396.42
476.94	396.62
477.31	396.66
477.67	396.80
478.04	397.11
478.41	397.51
478.77	398.09
479.14	398.43
479.50	399.18
479.87	400.13
480.23	401.10
480.60	402.01
480.96	402.92
481.33	404.31
481.69	405.68
482.06	407.04
482.42	408.30
482.79	409.87
483.15	411.71
483.52	413.79
483.88	415.78
484.25	417.91
484.61	420.11
484.98	422.48
485.34	425.18
485.71	427.93
486.07	430.90
486.44	433.80
486.80	437.10
487.17	440.44
487.53	444.12
487.90	447.93
488.26	452.11
488.62	456.53
488.99	460.95
489.35	465.61
489.72	470.63
490.08	475.90
490.44	481.25
490.81	486.76
491.17	492.41
491.54	498.42
491.90	504.58
492.26	511.17
492.63	518.08
492.99	525.21
493.36	532.64
493.72	540.47
494.08	548.42
494.45	556.79
494.81	565.56
495.17	574.51
495.54	583.98
495.90	593.82
496.26	603.91
496.63	614.25
496.99	624.92
497.35	636.04
497.72	647.52
498.08	659.45
498.44	671.64
498.80	684.62
499.17	697.92
499.53	711.68
499.89	725.72
500.26	739.89
500.62	754.34
500.98	769.49
501.34	784.80
501.71	800.85
502.07	817.16
502.43	833.91
502.79	850.75
503.16	868.09
503.52	885.68
503.88	903.72
504.24	922.20
504.60	940.95
504.97	960.12
505.33	979.75
505.69	1000.31
506.05	1020.92
506.41	1041.40
506.78	1062.24
507.14	1083.83
507.50	1105.94
507.86	1128.45
508.22	1151.10
508.59	1173.59
508.95	1196.92
509.31	1220.64
509.67	1245.02
510.03	1269.27
510.39	1293.97
510.75	1318.60
511.12	1343.36
511.48	1368.14
511.84	1393.01
512.20	1418.33
512.56	1444.05
512.92	1469.56
513.28	1494.75
513.64	1520.35
514.00	1546.02
514.37	1571.82
514.73	1597.39
515.09	1622.51
515.45	1647.85
515.81	1673.23
516.17	1698.71
516.53	1723.48
516.89	1748.29
517.25	1773.15
517.61	1797.87
517.97	1822.80
518.33	1847.32
518.69	1871.67
519.05	1896.24
519.41	1920.70
519.77	1945.09
520.13	1969.23
520.49	1993.12
520.85	2017.14
521.21	2040.97
521.57	2064.98
521.93	2087.97
522.29	2111.37
522.65	2134.30
523.01	2157.05
523.37	2178.95
523.73	2201.29
524.09	2223.78
524.45	2246.19
524.81	2267.75
525.17	2289.16
525.53	2309.83
525.89	2330.84
526.25	2351.44
526.61	2370.84
526.97	2390.46
527.33	2409.57
527.68	2427.80
528.04	2445.52
528.40	2462.16
528.76	2479.28
529.12	2495.28
529.48	2511.73
529.84	2526.89
530.20	2543.01
530.56	2558.08
530.91	2573.09
531.27	2587.14
531.63	2600.23
531.99	2613.05
532.35	2624.35
532.71	2635.67
533.07	2647.29
533.42	2657.36
533.78	2668.17
534.14	2679.25
534.50	2688.90
534.86	2698.70
535.21	2706.61
535.57	2714.69
535.93	2723.10
536.29	2730.42
536.65	2737.84
537.00	2743.19
537.36	2749.01
537.72	2753.17
538.08	2756.97
538.44	2759.99
538.79	2763.32
539.15	2766.03
539.51	2768.12
539.87	2770.84
540.22	2771.51
540.58	2772.70
540.94	2773.44
541.29	2772.74
541.65	2770.56
542.01	2768.50
542.37	2765.40
542.72	2763.96
543.08	2761.14
543.44	2758.08
543.79	2753.30
544.15	2748.48
544.51	2744.38
544.87	2738.30
545.22	2731.76
545.58	2725.52
545.94	2719.98
546.29	2712.62
546.65	2704.57
547.01	2696.62
547.36	2688.31
547.72	2679.92
548.07	2670.30
548.43	2660.58
548.79	2649.83
549.14	2640.04
549.50	2630.04
549.86	2619.49
550.21	2607.15
550.57	2596.08
550.92	2583.32
551.28	2571.22
551.64	2559.34
551.99	2547.52
552.35	2535.77
552.70	2523.77
553.06	2512.08
553.41	2499.14
553.77	2486.00
554.13	2473.12
554.48	2459.43
554.84	2445.24
555.19	2432.00
555.55	2417.92
555.90	2403.99
556.26	2390.96
556.61	2377.22
556.97	2362.55
557.32	2348.23
557.68	2334.05
558.03	2319.41
558.39	2305.51
558.74	2291.84
559.10	2276.12
559.45	2261.00
559.81	2246.55
560.16	2231.75
560.52	2216.66
560.87	2202.40
561.23	2187.62
561.58	2173.16
561.94	2158.00
562.29	2142.99
562.64	2127.89
563.00	2112.96
563.35	2098.61
563.71	2084.04
564.06	2069.07
564.42	2054.60
564.77	2040.17
565.12	2026.20
565.48	2012.01
565.83	1997.59
566.19	1983.22
566.54	1969.39
566.89	1954.30
567.25	1938.79
567.60	1924.46
567.96	1909.51
568.31	1894.10
568.66	1879.54
569.02	1864.94
569.37	1850.56
569.72	1836.47
570.08	1822.24
570.43	1807.95
570.78	1792.90
571.14	1777.84
571.49	1763.16
571.84	1749.28
572.20	1734.09
572.55	1719.12
572.90	1703.62
573.26	1688.19
573.61	1672.52
573.96	1657.44
574.31	1643.04
574.67	1629.12
575.02	1614.28
575.37	1599.22
575.72	1584.01
576.08	1569.14
576.43	1554.39
576.78	1539.65
577.13	1525.01
577.49	1510.37
577.84	1495.67
578.19	1481.18
578.54	1466.73
578.90	1452.19
579.25	1437.15
579.60	1423.26
579.95	1409.32
580.30	1395.59
580.66	1381.90
581.01	1368.40
581.36	1354.75
581.71	1341.03
582.06	1327.33
582.42	1313.81
582.77	1300.70
583.12	1287.82
583.47	1274.86
583.82	1262.01
584.17	1249.15
584.53	1236.32
584.88	1223.88
585.23	1211.22
585.58	1198.83
585.93	1186.49
586.28	1174.75
586.63	1162.90
586.98	1150.95
587.34	1139.31
587.69	1127.51
588.04	1116.04
588.39	1104.69
588.74	1093.25
589.09	1082.20
589.44	1070.60
589.79	1059.66
590.14	1048.81
590.49	1038.10
590.84	1027.62
591.19	1017.18
591.54	1006.82
591.89	996.17
592.25	985.62
592.60	975.08
592.95	964.80
593.30	954.54
593.65	944.21
594.00	934.14
594.35	924.72
594.70	914.87
595.05	905.68
595.40	896.28
595.75	886.76
596.10	877.72
596.45	868.52
596.80	859.76
597.15	850.91
597.50	842.15
597.85	833.70
598.19	825.18
598.54	816.74
598.89	808.40
599.24	800.52
599.59	792.72
599.94	785.39
600.29	777.77
600.64	770.28
600.99	762.78
601.34	755.48
601.69	747.65
602.04	740.41
602.39	733.24
602.74	726.28
603.08	719.44
603.43	712.61
603.78	705.90
604.13	699.32
604.48	692.74
604.83	686.39
605.18	680.03
605.53	673.79
605.87	667.42
606.22	661.33
606.57	655.20
606.92	648.95
607.27	642.85
607.62	637.14
607.96	631.49
608.31	626.12
608.66	620.60
609.01	615.35
609.36	610.27
609.70	605.12
610.05	599.94
610.40	594.87
610.75	589.74
611.10	584.97
611.44	580.10
611.79	575.36
612.14	570.56
612.49	565.76
612.83	561.20
613.18	556.86
613.53	552.56
613.88	548.24
614.22	544.15
614.57	539.96
614.92	535.80
615.27	531.79
615.61	527.75
615.96	523.87
616.31	520.00
616.65	516.12
617.00	512.33
617.35	508.64
617.70	505.05
618.04	501.62
618.39	498.08
618.74	494.71
619.08	491.28
619.43	487.94
619.78	484.72
620.12	481.51
620.47	478.45
620.82	475.36
621.16	472.38
621.51	469.50
621.85	466.69
622.20	463.92
622.55	461.15
622.89	458.43
623.24	455.84
623.59	453.27
623.93	450.76
624.28	448.34
624.62	446.14
624.97	443.90
625.32	441.50
625.66	439.13
626.01	436.80
626.35	434.67
626.70	432.48
627.04	430.44
627.39	428.33
627.73	426.25
628.08	424.31
628.43	422.36
628.77	420.42
629.12	418.56
629.46	416.69
629.81	414.95
630.15	413.14
630.50	411.34
630.84	409.61
631.19	407.96
631.53	406.34
631.88	404.53
632.22	402.83
632.57	401.46
632.91	400.05
633.26	398.71
633.60	397.28
633.95	395.96
634.29	394.49
634.64	393.13
634.98	391.63
635.32	390.29
635.67	389.04
636.01	387.78
636.36	386.57
636.70	385.49
637.05	384.21
637.39	383.10
637.73	381.98
638.08	380.91
638.42	379.83
638.77	378.66
639.11	377.47
639.45	376.36
639.80	375.18
640.14	374.06
640.49	372.89
640.83	371.79
641.17	370.68
641.52	369.63
641.86	368.61
642.20	367.76
642.55	366.72
642.89	365.72
643.23	364.73
643.58	363.84
643.92	362.81
644.26	361.86
644.61	360.96
644.95	360.05
645.29	359.12
645.64	358.16
645.98	357.27
646.32	356.48
646.66	355.60
647.01	354.72
647.35	353.92
647.69	353.12
648.04	352.35
648.38	351.54
648.72	350.79
649.06	350.02
649.41	349.22
649.75	348.46
650.09	347.73
650.43	347.01
650.78	346.24
651.12	345.50
651.46	344.79
651.80	344.09
652.14	343.37
652.49	342.70
652.83	341.98
653.17	341.30
653.51	340.64
653.85	340.06
654.20	339.45
654.54	338.74
654.88	338.06
655.22	337.43
655.56	336.74
655.90	336.05
656.25	335.41
656.59	334.76
656.93	334.19
657.27	333.63
657.61	332.98
657.95	332.41
658.29	331.84
658.64	331.34
658.98	330.75
659.32	330.17
659.66	329.61
660.00	329.07
660.34	328.51
660.68	327.93
661.02	327.29
661.36	326.70
661.70	326.15
662.05	325.64
662.39	325.13
662.73	324.73
663.07	324.34
663.41	323.86
663.75	323.32
664.09	322.77
664.43	322.17
664.77	321.69
665.11	321.10
665.45	320.57
665.79	320.01
666.13	319.45
666.47	318.92
666.81	318.36
667.15	317.79
667.49	317.31
667.83	316.89
668.17	316.45
668.51	316.00
668.85	315.57
669.19	315.19
669.53	314.67
669.87	314.17
670.21	313.66
670.55	313.21
670.89	312.87
671.23	312.45
671.57	312.05
671.91	311.66
672.25	311.32
672.58	310.96
672.92	310.52
673.26	310.14
673.60	309.74
673.94	309.36
674.28	309.00
674.62	308.63
674.96	308.17
675.30	307.78
675.64	307.36
675.97	306.93
676.31	306.45
676.65	306.02
676.99	305.66
677.33	305.19
677.67	304.76
678.01	304.22
678.34	303.79
678.68	303.37
679.02	302.91
679.36	302.47
679.70	301.99
680.04	301.57
680.37	301.16
680.71	300.76
681.05	300.36
681.39	299.93
681.73	299.46
682.06	299.01
682.40	298.59
682.74	298.20
683.08	297.85
683.42	297.40
683.75	297.00
684.09	296.49
684.43	296.06
684.77	295.61
685.10	295.24
685.44	294.85
685.78	294.44
686.12	294.03
686.45	293.60
686.79	293.16
687.13	292.76
687.46	292.30
687.80	291.87
688.14	291.39
688.48	290.96
688.81	290.55
689.15	290.18
689.49	289.73
689.82	289.28
690.16	288.77
690.50	288.36
690.83	287.94
691.17	287.50
691.51	287.09
691.84	286.72
692.18	286.29
692.52	285.82
692.85	285.39
693.19	285.03
693.52	284.63
693.86	284.25
694.20	283.84
694.53	283.43
694.87	282.98
695.21	282.56
695.54	282.14
695.88	281.70
696.21	281.21
696.55	280.80
696.88	280.37
697.22	279.95
697.56	279.56
697.89	279.10
698.23	278.69
698.56	278.25
698.90	277.82
699.23	277.40
699.57	277.00
699.90	276.55
700.24	276.07
700.58	275.67
700.91	275.30
701.25	275.05
701.58	274.73
701.92	274.42
702.25	274.06
702.59	273.68
702.92	273.31
703.26	272.93
703.59	272.54
703.93	272.29
704.26	271.93
704.60	271.54
704.93	271.16
705.26	270.77
705.60	270.43
705.93	270.02
706.27	269.70
706.60	269.39
706.94	269.09
707.27	268.70
707.61	268.33
707.94	267.94
708.27	267.41
708.61	266.96
708.94	266.56
709.28	266.19
709.61	265.83
709.94	265.50
710.28	265.20
710.61	264.91
710.95	264.43
711.28	264.23
711.61	263.89
711.95	263.62
712.28	263.30
712.61	262.96
712.95	262.72
713.28	262.47
713.61	262.12
713.95	261.76
714.28	261.47
714.61	261.13
714.95	260.83
715.28	260.53
715.61	260.24
715.95	259.98
716.28	259.67
716.61	259.39
716.95	259.06
717.28	258.75
717.61	258.43
717.94	258.15
718.28	257.73
718.61	257.44
718.94	257.13
719.27	256.87
719.61	256.62
719.94	256.33
720.27	255.98
720.60	255.71
720.94	255.46
721.27	255.22
721.60	255.01
721.93	254.74
722.27	254.56
722.60	254.33
722.93	254.05
723.26	253.83
723.59	253.58
723.93	253.39
724.26	253.17
724.59	252.94
724.92	252.72
725.25	252.55
725.59	252.34
725.92	252.15
726.25	251.92
726.58	251.71
726.91	251.46
727.24	251.27
727.57	251.05
727.91	250.79
728.24	250.61
728.57	250.39
728.90	250.21
729.23	249.95
729.56	249.82
729.89	249.64
730.22	249.42
730.55	249.22
730.89	249.01
731.22	248.80
731.55	248.60
731.88	248.41
732.21	248.20
732.54	247.99
732.87	247.80
733.20	247.62
733.53	247.44
733.86	247.28
734.19	247.09
734.52	246.94
734.85	246.90
735.18	246.69
735.51	246.58
735.84	246.41
736.17	246.29
736.50	246.03
736.83	246.05
737.16	245.90
737.49	245.76
737.82	245.59
738.15	245.46
738.48	245.30
738.81	245.13
739.14	244.95
739.47	244.79
739.80	244.63
740.13	244.50
740.46	244.32
740.79	244.15
741.12	244.01
741.45	243.83
741.78	243.59
742.11	243.49
742.44	243.28
742.77	243.15
743.10	242.98
743.43	242.84
743.75	242.51
744.08	242.64
744.41	242.48
744.74	242.34
745.07	242.17
745.40	242.07
745.73	242.02
746.06	241.89
746.39	241.79
746.71	241.64
747.04	241.48
747.37	241.36
747.70	241.25
748.03	241.13
748.36	241.04
748.68	240.91
749.01	240.75
749.34	240.64
749.67	240.53
750.00	240.43
750.33	240.44
750.65	240.34
750.98	239.97
751.31	239.86
751.64	239.76
751.97	239.74
752.29	239.61
752.62	239.41
752.95	239.29
753.28	239.16
753.60	239.04
753.93	238.98
754.26	238.89
754.59	238.73
754.91	238.60
755.24	238.48
755.57	238.38
755.90	238.27
756.22	238.14
756.55	238.00
756.88	237.87
757.20	237.66
757.53	237.51
757.86	237.41
758.19	237.33
758.51	237.22
758.84	237.04
759.17	236.94
759.49	236.86
759.82	236.85
760.15	236.78
760.47	236.69
760.80	236.55
761.13	236.49
761.45	236.40
761.78	236.33
762.11	236.25
762.43	236.14
762.76	236.06
763.08	236.01
763.41	235.94
763.74	235.87
764.06	235.79
764.39	235.73
764.71	235.65
765.04	235.55
765.37	235.46
765.69	235.40
766.02	235.33
766.34	235.25
766.67	235.11
767.00	235.07
767.32	235.10
767.65	235.14
767.97	235.05
768.30	235.00
768.62	234.92
768.95	234.85
769.27	234.80
769.60	234.75
769.92	234.66
770.25	234.57
770.57	234.48
770.90	234.42
771.22	234.36
771.55	234.30
771.87	234.26
772.20	234.21
772.52	234.29
772.85	234.45
773.17	234.39
773.50	234.34
773.82	234.25
774.15	234.11
774.47	233.96
774.80	233.89
775.12	233.85
775.45	233.80
775.77	233.76
776.09	233.72
776.42	233.68
776.74	233.69
777.07	233.65
777.39	233.63
777.72	233.57
778.04	233.54
778.36	233.48
778.69	233.45
779.01	233.42
779.33	233.23
779.66	232.99
779.98	232.95
780.31	232.92
780.63	232.96
780.95	232.97
781.28	232.93
781.60	232.88
781.92	232.85
782.25	232.81
782.57	232.78
782.89	232.74
783.22	232.69
783.54	232.62
783.86	232.59
784.19	232.54
784.51	232.57
784.83	232.50
785.16	232.48
785.48	232.43
785.80	232.40
786.12	232.38
786.45	232.34
786.77	232.33
787.09	232.28
787.42	232.19
787.74	232.15
788.06	232.14
788.38	232.10
788.71	232.06
789.03	232.04
789.35	232.02
789.67	231.97
789.99	231.96
790.32	231.91
790.64	231.91
790.96	232.05
791.28	231.96
791.61	231.95
791.93	231.93
792.25	231.91
792.57	232.01
792.89	231.96
793.21	231.94
793.54	231.90
793.86	231.85
794.18	231.84
794.50	231.78
794.82	231.74
795.14	231.74
795.47	231.76
795.79	231.74
796.11	231.69
796.43	231.67
796.75	231.63
797.07	231.63
797.39	231.59
797.71	231.42
798.04	231.42
798.36	231.40
798.68	231.37
799.00	231.36
799.32	231.24
799.64	231.26
799.96	231.24
800.28	231.26
800.60	231.23
800.92	231.22
801.24	231.19
801.56	231.20
801.89	231.17
802.21	231.14
802.53	231.08
802.85	231.10
803.17	231.16
803.49	231.11
803.81	231.08
804.13	231.04
804.45	231.01
804.77	231.00
805.09	230.98
805.41	230.95
805.73	230.91
806.05	230.84
806.37	230.80
806.69	230.77
807.01	230.73
807.33	230.73
807.65	230.65
807.97	230.70
808.28	230.67
808.60	230.64
808.92	230.60
809.24	230.71
809.56	230.67
809.88	230.61
810.20	230.60
810.52	230.61
810.84	230.58
811.16	230.54
811.48	230.52
811.80	230.56
812.12	230.55
812.43	230.58
812.75	230.57
813.07	230.54
813.39	230.54
813.71	230.51
814.03	230.49
814.35	230.49
814.67	230.42
814.98	230.39
815.30	230.38
815.62	230.34
815.94	230.20
816.26	230.21
816.58	230.15
816.89	230.14
817.21	230.10
817.53	230.10
817.85	230.09
818.17	230.07
818.48	229.98
818.80	230.01
819.12	229.97
819.44	229.94
819.76	229.91
820.07	229.89
820.39	229.88
820.71	229.88
821.03	229.86
821.34	229.84
821.66	229.84
821.98	229.84
822.30	229.83
822.61	229.93
822.93	229.89
823.25	229.87
823.57	229.85
823.88	229.87
824.20	229.85
824.52	229.88
824.83	229.87
825.15	229.85
825.47	229.81
825.79	229.82
826.10	229.81
826.42	229.80
826.74	229.81
827.05	229.79
827.37	229.78
827.69	229.76
828.00	229.76
828.32	229.77
828.64	229.74
828.95	229.83
829.27	229.76
829.58	229.75
829.90	229.78
830.22	229.79
830.53	229.75
830.85	229.73
831.17	229.68
831.48	229.67
831.80	229.68
832.11	229.66
832.43	229.63
832.75	229.62
833.06	229.71
833.38	229.65
833.69	229.65
834.01	229.67
834.32	229.66
834.64	229.63
834.96	229.62
835.27	229.62
835.59	229.55
835.90	229.53
836.22	229.52
836.53	229.49
836.85	229.47
837.16	229.63
837.48	229.63
837.79	229.68
838.11	229.68
838.42	229.68
838.74	229.70
839.05	229.68
839.37	229.67
839.68	229.57
840.00	229.56
840.31	229.57
840.63	229.54
840.94	229.53
841.26	229.52
841.57	229.51
841.88	229.52
842.20	229.49
842.51	229.46
842.83	229.44
843.14	229.60
843.46	229.59
843.77	229.49
844.08	229.47
844.40	229.42
844.71	229.40
845.03	229.37
845.34	229.35
845.65	229.35
845.97	229.35
846.28	229.35
846.60	229.36
846.91	229.33
847.22	229.33
847.54	229.35
847.85	229.36
848.16	229.34
848.48	229.30
848.79	229.37
849.10	229.40
849.42	229.40
849.73	229.23
850.04	229.23
850.36	229.17
850.67	229.20
850.98	229.20
851.30	229.22
851.61	229.22
851.92	229.21
852.23	229.26
852.55	229.28
852.86	229.27
853.17	229.28
853.49	229.32
853.80	229.35
854.11	229.35
854.42	229.37
854.74	229.35
855.05	229.36
855.36	229.26
855.67	229.26
855.99	229.26
856.30	229.47
856.61	229.47
856.92	229.47
857.23	229.46
857.55	229.45
857.86	229.43
858.17	229.45
858.48	229.42
858.79	229.38
859.11	229.37
859.42	229.36
859.73	229.33
860.04	229.32
860.35	229.28
860.66	229.23
860.98	229.22
861.29	229.25
861.60	229.23
861.91	229.27
862.22	229.24
862.53	229.21
862.84	229.01
863.16	229.03
863.47	228.99
863.78	228.98
864.09	228.99
864.40	229.00
864.71	229.00
865.02	229.02
865.33	229.00
865.64	228.98
865.95	229.00
866.27	229.11
866.58	229.08
866.89	229.10
867.20	229.09
867.51	229.06
867.82	229.04
868.13	229.10
868.44	229.06
868.75	229.09
869.06	229.10
869.37	229.11
869.68	229.08
869.99	229.12
870.30	229.11
870.61	229.13
870.92	229.10
871.23	229.08
871.54	229.11
871.85	229.15
872.16	229.16
872.47	229.14
872.78	229.05
873.09	229.07
873.40	229.05
873.71	229.07
874.02	229.09
874.33	229.07
874.64	229.03
874.95	229.07
875.26	229.03
875.56	229.03
875.87	229.02
876.18	229.01
876.49	229.18
876.80	229.16
877.11	229.13
877.42	229.12
877.73	229.13
878.04	229.11
878.35	229.10
878.66	229.10
878.96	229.09
879.27	229.10
879.58	229.09
879.89	229.09
880.20	229.14
880.51	229.12
880.82	229.13
881.12	229.14
881.43	229.10
881.74	229.08
882.05	229.06
882.36	229.06
882.67	229.09
882.97	228.89
883.28	228.88
883.59	228.89
883.90	228.92
884.21	228.93
884.51	228.92
884.82	228.89
885.13	228.89
885.44	228.90
885.74	228.90
886.05	228.88
886.36	228.88
886.67	228.81
886.98	228.91
887.28	228.93
887.59	228.92
887.90	228.92
888.20	228.93
888.51	228.97
888.82	228.94
889.13	228.95
889.43	229.10
889.74	229.10
890.05	229.09
890.35	229.06
890.66	229.04
890.97	229.02
891.28	229.01
891.58	229.01
891.89	229.00
892.20	228.98
892.50	228.96
892.81	228.94
893.12	228.94
893.42	228.84
893.73	228.84
894.04	228.84
894.34	228.85
894.65	228.84
894.95	228.83
895.26	228.83
895.57	228.91
895.87	228.73
896.18	228.76
896.48	228.77
896.79	228.78
897.10	228.80
897.40	228.83
897.71	228.84
898.01	228.82
898.32	228.84
898.63	228.83
898.93	228.84
899.24	228.85
899.54	228.83
899.85	228.82
900.15	228.81
900.46	228.81
900.76	228.83
901.07	228.82
901.38	228.80
901.68	228.82
901.99	228.72
902.29	228.74
902.60	228.71
902.90	228.69
903.21	228.67
903.51	228.65
903.82	228.67
904.12	228.67
904.43	228.69
904.73	228.68
905.03	228.69
905.34	228.87
905.64	228.86
905.95	228.86
906.25	228.87
906.56	228.86
906.86	228.86
907.17	228.84
907.47	228.84
907.77	228.82
908.08	228.78
908.38	228.80
908.69	228.81
908.99	228.85
909.30	228.86
909.60	228.85
909.90	228.85
910.21	228.80
910.51	228.78
910.81	228.76
911.12	228.78
911.42	228.78
911.73	228.59
912.03	228.61
912.33	228.63
912.64	228.62
912.94	228.61
913.24	228.58
913.55	228.57
913.85	228.56
914.15	228.60
914.46	228.62
914.76	228.59
915.06	228.58
915.37	228.55
915.67	228.54
915.97	228.55
916.27	228.53
916.58	228.53
916.88	228.53
917.18	228.52
917.49	228.63
917.79	228.61
918.09	228.63
918.39	228.67
918.70	228.65
919.00	228.65
919.30	228.73
919.60	228.72
919.91	228.70
920.21	228.71
920.51	228.67
920.81	228.68
921.12	228.72
921.42	228.71
921.72	228.72
922.02	228.73
922.32	228.76
922.63	228.76
922.93	228.86
923.23	228.87
923.53	228.85
923.83	228.74
924.13	228.76
924.44	228.76
924.74	228.79
925.04	228.83
925.34	228.84
925.64	228.78
925.94	228.79
926.24	228.90
926.55	228.88
926.85	228.90
927.15	228.89
927.45	228.88
927.75	228.88
928.05	228.89
928.35	228.87
928.65	228.89
928.95	228.92
929.26	228.83
929.56	228.86
929.86	228.88
930.16	228.88
930.46	228.87
930.76	228.87
931.06	228.79
931.36	228.75
931.66	228.77
931.96	228.79
932.26	228.81
932.56	228.74
932.86	228.76
933.16	228.75
933.46	228.74
933.76	228.72
934.06	228.74
934.36	228.79
934.66	228.79
934.96	228.76
935.26	228.76
935.56	228.79
935.86	228.75
936.16	228.72
936.46	228.71
936.76	228.70
937.06	228.68
937.36	228.69
937.66	228.70
937.96	228.68
938.26	228.64
938.56	228.61
938.86	228.62
939.16	228.65
939.46	228.67
939.76	228.69
940.06	228.69
940.35	228.67
940.65	228.59
940.95	228.61
941.25	228.56
941.55	228.55
941.85	228.52
942.15	228.57
942.45	228.61
942.75	228.61
943.04	228.62
943.34	228.64
943.64	228.63
943.94	228.60
944.24	228.60
944.54	228.60
944.84	228.61
945.13	228.57
945.43	228.53
945.73	228.52
946.03	228.49
946.33	228.47
946.62	228.46
946.92	228.45
947.22	228.46
947.52	228.47
947.82	228.49
948.11	228.48
948.41	228.43
948.71	228.38
949.01	228.40
949.31	228.38
949.60	228.37
949.90	228.39
950.20	228.39
950.50	228.40
950.79	228.40
951.09	228.43
951.39	228.42
951.69	228.41
951.98	228.45
952.28	228.46
952.58	228.47
952.87	228.48
953.17	228.50
953.47	228.48
953.76	228.48
954.06	228.44
954.36	228.42
954.66	228.42
954.95	228.47
955.25	228.49
955.55	228.50
955.84	228.47
956.14	228.47
956.44	228.48
956.73	228.45
957.03	228.47
957.32	228.46
957.62	228.46
957.92	228.49
958.21	228.46
958.51	228.67
958.81	228.68
959.10	228.69
959.40	228.73
959.69	228.74
959.99	228.77
960.29	228.77
960.58	228.79
960.88	228.85
961.17	228.82
961.47	228.82
961.76	228.82
962.06	228.85
962.36	228.84
962.65	228.85
962.95	228.87
963.24	228.84
963.54	228.84
963.83	228.87
964.13	228.86
964.42	228.85
964.72	228.69
965.01	228.70
965.31	228.69
965.60	228.64
965.90	228.76
966.19	228.71
966.49	228.73
966.78	228.71
967.08	228.70
967.37	228.72
967.67	228.70
967.96	228.73
968.26	228.72
968.55	228.74
968.85	228.73
969.14	228.72
969.43	228.72
969.73	228.71
970.02	228.69
970.32	228.67
970.61	228.64
970.91	228.59
971.20	228.58
971.49	228.56
971.79	228.59
972.08	228.46
972.38	228.49
972.67	228.47
972.96	228.51
973.26	228.46
973.55	228.50
973.85	228.49
974.14	228.46
974.43	228.48
974.73	228.45
975.02	228.43
975.31	228.43
975.61	228.43
975.90	228.41
976.19	228.41
976.49	228.42
976.78	228.44
977.07	228.43
977.37	228.44
977.66	228.46
977.95	228.43
978.24	228.45
978.54	228.48
978.83	228.47
979.12	228.46
979.42	228.47
979.71	228.43
980.00	228.42
980.29	228.44
980.59	228.40
980.88	228.45
981.17	228.45
981.46	228.45
981.76	228.46
982.05	228.51
982.34	228.52
982.63	228.52
982.93	228.52
983.22	228.57
983.51	228.57
983.80	228.60
984.09	228.63
984.39	228.61
984.68	228.58
984.97	228.58
985.26	228.57
985.55	228.57
985.85	228.54
986.14	228.58
986.43	228.59
986.72	228.59
987.01	228.53
987.30	228.54
987.59	228.52
987.89	228.52
988.18	228.48
988.47	228.47
988.76	228.46
989.05	228.44
989.34	228.41
989.63	228.46
989.92	228.41
990.22	228.39
990.51	228.38
990.80	228.38
991.09	228.39
991.38	228.42
991.67	228.39
991.96	228.38
992.25	228.38
992.54	228.33
992.83	228.33
993.12	228.33
993.41	228.36
993.70	228.43
993.99	228.46
994.28	228.48
994.58	228.51
994.87	228.49
995.16	228.48
995.45	228.48
995.74	228.42
996.03	228.45
996.32	228.47
996.61	228.51
996.90	228.50
997.19	228.49
997.48	228.48
997.77	228.47
998.06	228.48
998.34	228.46
998.63	228.47
998.92	228.48
999.21	228.52
999.50	228.51
999.79	228.44
1000.08	228.44
1000.37	228.44
1000.66	228.40
1000.95	228.46
1001.24	228.47
1001.53	228.49
1001.82	228.48
1002.11	228.45
1002.40	228.47
1002.68	228.50
1002.97	228.63
1003.26	228.61
1003.55	228.59
1003.84	228.61
1004.13	228.67
1004.42	228.66
1004.71	228.66
1004.99	228.65
1005.28	228.69
1005.57	228.68
1005.86	228.66
1006.15	228.63
1006.44	228.61
1006.72	228.64
1007.01	228.59
1007.30	228.60
1007.59	228.58
1007.88	228.58
1008.17	228.59
1008.45	228.55
1008.74	228.48
1009.03	228.39
1009.32	228.40
1009.60	228.40
1009.89	228.40
1010.18	228.32
1010.47	228.32
1010.76	228.32
1011.04	228.32
1011.33	228.32
1011.62	228.34
1011.91	228.35
1012.19	228.37
1012.48	228.38
1012.77	228.37
1013.05	228.44
1013.34	228.44
1013.63	228.43
1013.92	228.45
1014.20	228.43
1014.49	228.45
1014.78	228.47
1015.06	228.41
1015.35	228.42
1015.64	228.44
1015.92	228.47
1016.21	228.48
1016.50	228.47
1016.78	228.50
1017.07	228.51
1017.36	228.47
1017.64	228.45
1017.93	228.46
1018.22	228.45
1018.50	228.44
1018.79	228.42
1019.08	228.36
1019.36	228.37
1019.65	228.37
1019.93	228.40
1020.22	228.44
1020.51	228.53
1020.79	228.50
1021.08	228.16
1021.36	228.14
1021.65	228.18
1021.94	228.29
1022.22	228.59
1022.51	228.16
1022.79	229.16
1023.08	228.87
1023.36	230.52
1023.65	227.98
>>>>>End Processed Spectral Data<<<<<
