SpectraSuite Data File
++++++++++++++++++++++++++++++++++++
Date: Tue Oct 06 12:33:38 EDT 2015
User: lab3
Dark Spectrum Present: No
Reference Spectrum Present: No
Number of Sampled Component Spectra: 1
Spectrometers: USB2E7196
Integration Time (usec): 66000 (USB2E7196)
Spectra Averaged: 1000 (USB2E7196)
Boxcar Smoothing: 10 (USB2E7196)
Correct for Electrical Dark: No (USB2E7196)
Strobe/Lamp Enabled: No (USB2E7196)
Correct for Detector Non-linearity: No (USB2E7196)
Correct for Stray Light: No (USB2E7196)
Number of Pixels in Processed Spectrum: 2048
>>>>>Begin Processed Spectral Data<<<<<
339.09	0.00
339.48	217.04
339.86	218.38
340.24	219.69
340.63	221.08
341.01	225.13
341.39	223.95
341.78	225.45
342.16	226.58
342.54	226.89
342.93	215.30
343.31	226.17
343.69	226.70
344.07	227.17
344.46	227.60
344.84	228.00
345.22	228.20
345.60	228.47
345.99	228.67
346.37	228.81
346.75	228.93
347.13	229.01
347.52	229.09
347.90	229.19
348.28	229.23
348.66	229.31
349.05	229.31
349.43	229.37
349.81	229.44
350.19	229.51
350.57	229.58
350.96	229.68
351.34	229.78
351.72	229.88
352.10	229.98
352.48	230.06
352.87	230.12
353.25	230.18
353.63	230.23
354.01	230.29
354.39	230.37
354.77	230.44
355.15	230.57
355.54	230.61
355.92	230.63
356.30	230.71
356.68	230.89
357.06	230.96
357.44	231.00
357.82	231.05
358.20	231.26
358.58	231.32
358.97	231.38
359.35	231.47
359.73	231.58
360.11	231.64
360.49	231.70
360.87	231.74
361.25	231.82
361.63	231.93
362.01	231.97
362.39	232.00
362.77	232.06
363.15	232.08
363.53	232.11
363.91	232.15
364.29	232.17
364.67	232.02
365.05	232.05
365.43	232.11
365.81	232.16
366.19	232.11
366.57	232.18
366.95	232.18
367.33	232.13
367.71	232.12
368.09	232.15
368.47	232.15
368.85	232.14
369.23	232.15
369.61	232.08
369.99	232.11
370.37	232.10
370.75	232.21
371.13	232.17
371.51	232.14
371.89	232.13
372.27	232.10
372.65	232.08
373.03	232.04
373.41	231.99
373.78	231.94
374.16	231.81
374.54	231.72
374.92	231.66
375.30	231.63
375.68	231.55
376.06	231.50
376.44	231.45
376.82	231.41
377.19	231.37
377.57	231.32
377.95	231.22
378.33	231.15
378.71	230.94
379.09	230.91
379.47	230.87
379.84	230.81
380.22	230.75
380.60	230.69
380.98	230.64
381.36	230.58
381.73	230.51
382.11	230.50
382.49	230.47
382.87	230.40
383.25	230.36
383.62	230.53
384.00	230.46
384.38	230.43
384.76	230.43
385.13	230.45
385.51	230.41
385.89	230.35
386.27	230.33
386.64	230.33
387.02	230.28
387.40	230.24
387.78	230.21
388.15	230.19
388.53	230.17
388.91	230.15
389.29	230.12
389.66	230.13
390.04	230.09
390.42	230.09
390.79	230.08
391.17	230.07
391.55	229.86
391.92	229.86
392.30	229.87
392.68	229.82
393.05	229.79
393.43	229.80
393.81	229.82
394.18	229.79
394.56	229.81
394.94	229.86
395.31	229.87
395.69	229.94
396.06	229.98
396.44	230.02
396.82	230.04
397.19	230.17
397.57	230.19
397.95	230.25
398.32	230.26
398.70	230.34
399.07	230.43
399.45	230.50
399.82	230.57
400.20	230.62
400.58	230.71
400.95	230.74
401.33	230.86
401.70	231.08
402.08	231.23
402.45	231.36
402.83	231.51
403.20	231.68
403.58	231.79
403.95	231.99
404.33	232.20
404.71	232.41
405.08	232.71
405.46	232.94
405.83	233.21
406.21	233.50
406.58	233.82
406.96	234.13
407.33	234.48
407.70	234.88
408.08	235.44
408.45	235.93
408.83	236.46
409.20	236.96
409.58	237.40
409.95	238.00
410.33	238.65
410.70	239.28
411.08	240.01
411.45	240.79
411.82	241.58
412.20	242.49
412.57	243.55
412.95	244.40
413.32	245.51
413.69	246.64
414.07	247.85
414.44	249.18
414.82	250.53
415.19	252.12
415.56	253.74
415.94	255.40
416.31	257.27
416.68	259.16
417.06	261.35
417.43	263.40
417.81	265.76
418.18	268.18
418.55	270.80
418.93	273.55
419.30	276.42
419.67	279.47
420.04	282.59
420.42	285.89
420.79	289.65
421.16	293.47
421.54	297.34
421.91	301.38
422.28	305.56
422.66	310.08
423.03	314.37
423.40	318.90
423.77	323.71
424.15	328.65
424.52	333.77
424.89	339.32
425.26	344.83
425.64	349.93
426.01	355.66
426.38	361.52
426.75	367.55
427.13	373.70
427.50	380.13
427.87	386.80
428.24	393.51
428.61	399.97
428.99	406.90
429.36	414.58
429.73	421.92
430.10	429.24
430.47	436.74
430.85	444.49
431.22	452.72
431.59	461.19
431.96	469.43
432.33	478.63
432.70	487.37
433.08	497.75
433.45	507.54
433.82	517.14
434.19	527.87
434.56	538.41
434.93	548.65
435.30	558.83
435.68	570.36
436.05	581.64
436.42	592.91
436.79	603.23
437.16	614.32
437.53	626.28
437.90	638.26
438.27	649.92
438.64	662.47
439.01	673.93
439.38	684.51
439.75	694.68
440.13	706.22
440.50	717.22
440.87	725.93
441.24	735.53
441.61	746.06
441.98	753.81
442.35	762.99
442.72	772.36
443.09	781.36
443.46	787.28
443.83	791.64
444.20	795.19
444.57	800.47
444.94	803.67
445.31	806.82
445.68	809.50
446.05	811.48
446.42	811.13
446.79	810.55
447.16	809.99
447.53	809.62
447.90	806.20
448.27	802.79
448.64	797.56
449.01	794.01
449.37	786.67
449.74	780.07
450.11	771.50
450.48	762.04
450.85	752.50
451.22	744.19
451.59	736.15
451.96	728.98
452.33	718.53
452.70	709.12
453.07	697.80
453.43	686.49
453.80	675.52
454.17	665.02
454.54	655.21
454.91	644.16
455.28	633.69
455.65	623.73
456.02	613.38
456.38	604.99
456.75	594.18
457.12	585.45
457.49	576.63
457.86	568.36
458.23	561.12
458.59	553.07
458.96	544.86
459.33	537.64
459.70	530.29
460.07	524.60
460.43	517.93
460.80	511.67
461.17	506.21
461.54	500.38
461.91	494.90
462.27	489.34
462.64	484.81
463.01	479.61
463.38	474.47
463.74	469.78
464.11	465.65
464.48	461.92
464.85	457.89
465.21	454.76
465.58	451.31
465.95	447.37
466.32	444.21
466.68	441.13
467.05	438.02
467.42	434.98
467.78	431.75
468.15	428.79
468.52	426.63
468.88	423.77
469.25	421.15
469.62	419.05
469.98	416.79
470.35	414.74
470.72	412.91
471.08	411.01
471.45	409.40
471.82	407.61
472.18	405.76
472.55	404.56
472.92	403.09
473.28	401.92
473.65	400.66
474.02	399.54
474.38	398.56
474.75	397.97
475.11	397.12
475.48	396.73
475.85	396.34
476.21	396.12
476.58	395.98
476.94	396.15
477.31	396.22
477.67	396.36
478.04	396.67
478.41	397.09
478.77	397.70
479.14	398.07
479.50	398.83
479.87	399.80
480.23	400.76
480.60	401.69
480.96	402.63
481.33	404.04
481.69	405.40
482.06	406.77
482.42	408.07
482.79	409.65
483.15	411.51
483.52	413.60
483.88	415.60
484.25	417.74
484.61	420.00
484.98	422.39
485.34	425.08
485.71	427.88
486.07	430.86
486.44	433.79
486.80	437.12
487.17	440.49
487.53	444.21
487.90	448.08
488.26	452.32
488.62	456.74
488.99	461.19
489.35	465.91
489.72	470.99
490.08	476.30
490.44	481.71
490.81	487.26
491.17	492.95
491.54	499.06
491.90	505.29
492.26	511.95
492.63	518.92
492.99	526.13
493.36	533.64
493.72	541.52
494.08	549.56
494.45	557.98
494.81	566.83
495.17	575.87
495.54	585.44
495.90	595.38
496.26	605.58
496.63	616.03
496.99	626.80
497.35	638.02
497.72	649.59
498.08	661.61
498.44	673.90
498.80	686.97
499.17	700.38
499.53	714.22
499.89	728.37
500.26	742.70
500.62	757.32
500.98	772.57
501.34	788.05
501.71	804.21
502.07	820.68
502.43	837.56
502.79	854.58
503.16	872.05
503.52	889.73
503.88	907.96
504.24	926.57
504.60	945.49
504.97	964.83
505.33	984.62
505.69	1005.38
506.05	1026.16
506.41	1046.88
506.78	1067.90
507.14	1089.73
507.50	1112.02
507.86	1134.68
508.22	1157.46
508.59	1180.06
508.95	1203.57
509.31	1227.54
509.67	1252.13
510.03	1276.51
510.39	1301.33
510.75	1326.14
511.12	1351.12
511.48	1376.02
511.84	1401.04
512.20	1426.53
512.56	1452.36
512.92	1478.05
513.28	1503.40
513.64	1529.14
514.00	1554.86
514.37	1580.76
514.73	1606.38
515.09	1631.58
515.45	1657.04
515.81	1682.50
516.17	1708.17
516.53	1733.04
516.89	1757.89
517.25	1782.81
517.61	1807.69
517.97	1832.66
518.33	1857.18
518.69	1881.60
519.05	1906.25
519.41	1930.80
519.77	1955.29
520.13	1979.51
520.49	2003.48
520.85	2027.54
521.21	2051.40
521.57	2075.40
521.93	2098.45
522.29	2121.91
522.65	2144.85
523.01	2167.63
523.37	2189.62
523.73	2211.89
524.09	2234.36
524.45	2256.84
524.81	2278.34
525.17	2299.71
525.53	2320.40
525.89	2341.41
526.25	2361.95
526.61	2381.32
526.97	2400.94
527.33	2419.90
527.68	2438.05
528.04	2455.57
528.40	2472.06
528.76	2489.08
529.12	2505.03
529.48	2521.42
529.84	2536.50
530.20	2552.59
530.56	2567.49
530.91	2582.43
531.27	2596.41
531.63	2609.43
531.99	2622.12
532.35	2633.33
532.71	2644.56
533.07	2656.05
533.42	2666.06
533.78	2676.84
534.14	2687.75
534.50	2697.19
534.86	2706.78
535.21	2714.49
535.57	2722.57
535.93	2730.94
536.29	2738.09
536.65	2745.31
537.00	2750.47
537.36	2756.11
537.72	2760.08
538.08	2763.76
538.44	2766.62
538.79	2769.78
539.15	2772.28
539.51	2774.13
539.87	2776.59
540.22	2777.00
540.58	2778.03
540.94	2778.52
541.29	2777.64
541.65	2775.22
542.01	2772.91
542.37	2769.67
542.72	2768.11
543.08	2765.03
543.44	2761.75
543.79	2756.77
544.15	2751.77
544.51	2747.40
544.87	2741.12
545.22	2734.29
545.58	2727.88
545.94	2722.12
546.29	2714.48
546.65	2706.27
547.01	2698.15
547.36	2689.66
547.72	2681.13
548.07	2671.30
548.43	2661.36
548.79	2650.27
549.14	2640.28
549.50	2630.09
549.86	2619.34
550.21	2606.77
550.57	2595.48
550.92	2582.53
551.28	2570.31
551.64	2558.31
551.99	2546.32
552.35	2534.38
552.70	2522.25
553.06	2510.30
553.41	2497.15
553.77	2483.88
554.13	2470.86
554.48	2456.94
554.84	2442.63
555.19	2429.23
555.55	2415.02
555.90	2401.01
556.26	2387.95
556.61	2374.12
556.97	2359.39
557.32	2344.98
557.68	2330.67
558.03	2315.88
558.39	2301.83
558.74	2287.97
559.10	2272.18
559.45	2257.01
559.81	2242.44
560.16	2227.58
560.52	2212.43
560.87	2198.14
561.23	2183.26
561.58	2168.63
561.94	2153.38
562.29	2138.37
562.64	2123.14
563.00	2108.09
563.35	2093.63
563.71	2078.93
564.06	2063.96
564.42	2049.52
564.77	2035.02
565.12	2021.00
565.48	2006.75
565.83	1992.31
566.19	1977.95
566.54	1964.01
566.89	1948.85
567.25	1933.34
567.60	1919.04
567.96	1904.11
568.31	1888.61
568.66	1874.06
569.02	1859.47
569.37	1845.15
569.72	1830.96
570.08	1816.82
570.43	1802.51
570.78	1787.48
571.14	1772.38
571.49	1757.67
571.84	1743.64
572.20	1728.43
572.55	1713.46
572.90	1698.04
573.26	1682.59
573.61	1666.96
573.96	1651.93
574.31	1637.55
574.67	1623.61
575.02	1608.74
575.37	1593.64
575.72	1578.45
576.08	1563.67
576.43	1548.96
576.78	1534.23
577.13	1519.68
577.49	1504.97
577.84	1490.34
578.19	1475.86
578.54	1461.47
578.90	1446.95
579.25	1431.99
579.60	1418.16
579.95	1404.28
580.30	1390.58
580.66	1376.95
581.01	1363.48
581.36	1349.82
581.71	1336.16
582.06	1322.52
582.42	1309.07
582.77	1296.04
583.12	1283.19
583.47	1270.21
583.82	1257.42
584.17	1244.57
584.53	1231.80
584.88	1219.41
585.23	1206.78
585.58	1194.44
585.93	1182.13
586.28	1170.43
586.63	1158.63
586.98	1146.70
587.34	1135.09
587.69	1123.34
588.04	1111.91
588.39	1100.60
588.74	1089.20
589.09	1078.20
589.44	1066.66
589.79	1055.71
590.14	1044.87
590.49	1034.23
590.84	1023.77
591.19	1013.33
591.54	1003.00
591.89	992.38
592.25	981.90
592.60	971.39
592.95	961.11
593.30	950.88
593.65	940.63
594.00	930.58
594.35	921.24
594.70	911.44
595.05	902.27
595.40	892.90
595.75	883.40
596.10	874.40
596.45	865.24
596.80	856.51
597.15	847.75
597.50	839.02
597.85	830.61
598.19	822.19
598.54	813.73
598.89	805.45
599.24	797.64
599.59	789.87
599.94	782.60
600.29	775.08
600.64	767.66
600.99	760.17
601.34	752.93
601.69	745.14
602.04	737.96
602.39	730.87
602.74	723.97
603.08	717.17
603.43	710.41
603.78	703.73
604.13	697.20
604.48	690.66
604.83	684.34
605.18	678.02
605.53	671.77
605.87	665.47
606.22	659.41
606.57	653.29
606.92	647.07
607.27	640.99
607.62	635.29
607.96	629.66
608.31	624.33
608.66	618.83
609.01	613.64
609.36	608.62
609.70	603.49
610.05	598.33
610.40	593.30
610.75	588.23
611.10	583.49
611.44	578.67
611.79	573.97
612.14	569.23
612.49	564.48
612.83	559.98
613.18	555.69
613.53	551.43
613.88	547.14
614.22	543.10
614.57	538.95
614.92	534.82
615.27	530.86
615.61	526.91
615.96	523.05
616.31	519.15
616.65	515.26
617.00	511.52
617.35	507.87
617.70	504.32
618.04	500.89
618.39	497.37
618.74	494.03
619.08	490.59
619.43	487.28
619.78	484.08
620.12	480.91
620.47	477.87
620.82	474.83
621.16	471.90
621.51	469.07
621.85	466.29
622.20	463.58
622.55	460.84
622.89	458.12
623.24	455.57
623.59	453.04
623.93	450.57
624.28	448.17
624.62	446.00
624.97	443.77
625.32	441.42
625.66	439.07
626.01	436.75
626.35	434.64
626.70	432.46
627.04	430.44
627.39	428.33
627.73	426.28
628.08	424.34
628.43	422.42
628.77	420.48
629.12	418.64
629.46	416.78
629.81	415.04
630.15	413.25
630.50	411.47
630.84	409.77
631.19	408.14
631.53	406.54
631.88	404.75
632.22	403.06
632.57	401.69
632.91	400.33
633.26	399.02
633.60	397.63
633.95	396.32
634.29	394.91
634.64	393.55
634.98	392.06
635.32	390.74
635.67	389.53
636.01	388.29
636.36	387.09
636.70	386.01
637.05	384.80
637.39	383.72
637.73	382.62
638.08	381.58
638.42	380.52
638.77	379.37
639.11	378.20
639.45	377.11
639.80	375.98
640.14	374.86
640.49	373.71
640.83	372.62
641.17	371.52
641.52	370.48
641.86	369.49
642.20	368.67
642.55	367.65
642.89	366.64
643.23	365.64
643.58	364.77
643.92	363.74
644.26	362.79
644.61	361.89
644.95	360.97
645.29	360.06
645.64	359.08
645.98	358.19
646.32	357.40
646.66	356.53
647.01	355.66
647.35	354.87
647.69	354.06
648.04	353.29
648.38	352.49
648.72	351.73
649.06	350.99
649.41	350.18
649.75	349.44
650.09	348.73
650.43	348.02
650.78	347.23
651.12	346.51
651.46	345.79
651.80	345.10
652.14	344.41
652.49	343.72
652.83	343.03
653.17	342.35
653.51	341.69
653.85	341.10
654.20	340.47
654.54	339.76
654.88	339.13
655.22	338.50
655.56	337.81
655.90	337.13
656.25	336.48
656.59	335.82
656.93	335.23
657.27	334.65
657.61	334.00
657.95	333.45
658.29	332.87
658.64	332.36
658.98	331.77
659.32	331.17
659.66	330.61
660.00	330.06
660.34	329.51
660.68	328.93
661.02	328.30
661.36	327.69
661.70	327.13
662.05	326.59
662.39	326.10
662.73	325.67
663.07	325.27
663.41	324.78
663.75	324.24
664.09	323.71
664.43	323.12
664.77	322.65
665.11	322.05
665.45	321.53
665.79	320.96
666.13	320.41
666.47	319.87
666.81	319.30
667.15	318.72
667.49	318.24
667.83	317.81
668.17	317.36
668.51	316.92
668.85	316.50
669.19	316.11
669.53	315.57
669.87	315.06
670.21	314.57
670.55	314.11
670.89	313.78
671.23	313.35
671.57	312.93
671.91	312.54
672.25	312.17
672.58	311.80
672.92	311.36
673.26	310.97
673.60	310.59
673.94	310.21
674.28	309.85
674.62	309.46
674.96	309.01
675.30	308.58
675.64	308.16
675.97	307.72
676.31	307.22
676.65	306.80
676.99	306.43
677.33	305.95
677.67	305.50
678.01	304.95
678.34	304.52
678.68	304.10
679.02	303.62
679.36	303.19
679.70	302.71
680.04	302.28
680.37	301.83
680.71	301.40
681.05	301.01
681.39	300.56
681.73	300.08
682.06	299.63
682.40	299.22
682.74	298.84
683.08	298.49
683.42	298.06
683.75	297.66
684.09	297.17
684.43	296.73
684.77	296.29
685.10	295.90
685.44	295.51
685.78	295.09
686.12	294.69
686.45	294.25
686.79	293.81
687.13	293.40
687.46	292.96
687.80	292.53
688.14	292.03
688.48	291.61
688.81	291.20
689.15	290.83
689.49	290.36
689.82	289.90
690.16	289.38
690.50	288.95
690.83	288.50
691.17	288.03
691.51	287.61
691.84	287.23
692.18	286.80
692.52	286.33
692.85	285.89
693.19	285.51
693.52	285.10
693.86	284.68
694.20	284.26
694.53	283.85
694.87	283.39
695.21	282.96
695.54	282.53
695.88	282.07
696.21	281.56
696.55	281.15
696.88	280.72
697.22	280.30
697.56	279.90
697.89	279.45
698.23	279.04
698.56	278.58
698.90	278.19
699.23	277.74
699.57	277.33
699.90	276.89
700.24	276.40
700.58	276.00
700.91	275.65
701.25	275.40
701.58	275.08
701.92	274.76
702.25	274.42
702.59	274.02
702.92	273.65
703.26	273.28
703.59	272.88
703.93	272.63
704.26	272.28
704.60	271.89
704.93	271.49
705.26	271.10
705.60	270.77
705.93	270.32
706.27	270.01
706.60	269.68
706.94	269.39
707.27	269.01
707.61	268.63
707.94	268.23
708.27	267.72
708.61	267.27
708.94	266.88
709.28	266.50
709.61	266.14
709.94	265.83
710.28	265.52
710.61	265.23
710.95	264.76
711.28	264.52
711.61	264.20
711.95	263.93
712.28	263.61
712.61	263.26
712.95	263.04
713.28	262.78
713.61	262.43
713.95	262.07
714.28	261.78
714.61	261.44
714.95	261.14
715.28	260.82
715.61	260.52
715.95	260.24
716.28	259.94
716.61	259.66
716.95	259.32
717.28	259.01
717.61	258.68
717.94	258.39
718.28	257.99
718.61	257.70
718.94	257.39
719.27	257.11
719.61	256.86
719.94	256.57
720.27	256.21
720.60	255.95
720.94	255.70
721.27	255.46
721.60	255.24
721.93	254.98
722.27	254.80
722.60	254.58
722.93	254.30
723.26	254.08
723.59	253.83
723.93	253.63
724.26	253.41
724.59	253.18
724.92	252.97
725.25	252.81
725.59	252.59
725.92	252.39
726.25	252.16
726.58	251.94
726.91	251.69
727.24	251.50
727.57	251.26
727.91	251.01
728.24	250.82
728.57	250.60
728.90	250.43
729.23	250.15
729.56	250.03
729.89	249.84
730.22	249.62
730.55	249.41
730.89	249.22
731.22	249.00
731.55	248.80
731.88	248.60
732.21	248.38
732.54	248.17
732.87	247.99
733.20	247.82
733.53	247.63
733.86	247.48
734.19	247.28
734.52	247.13
734.85	247.09
735.18	246.89
735.51	246.75
735.84	246.59
736.17	246.47
736.50	246.20
736.83	246.25
737.16	246.08
737.49	245.94
737.82	245.77
738.15	245.64
738.48	245.48
738.81	245.32
739.14	245.15
739.47	244.99
739.80	244.82
740.13	244.68
740.46	244.52
740.79	244.33
741.12	244.19
741.45	244.02
741.78	243.78
742.11	243.68
742.44	243.49
742.77	243.37
743.10	243.20
743.43	243.06
743.75	242.73
744.08	242.86
744.41	242.70
744.74	242.55
745.07	242.37
745.40	242.27
745.73	242.22
746.06	242.09
746.39	241.99
746.71	241.85
747.04	241.69
747.37	241.56
747.70	241.46
748.03	241.33
748.36	241.23
748.68	241.10
749.01	240.93
749.34	240.82
749.67	240.70
750.00	240.61
750.33	240.62
750.65	240.51
750.98	240.15
751.31	240.05
751.64	239.96
751.97	239.93
752.29	239.81
752.62	239.60
752.95	239.49
753.28	239.34
753.60	239.23
753.93	239.17
754.26	239.07
754.59	238.91
754.91	238.78
755.24	238.66
755.57	238.64
755.90	238.53
756.22	238.40
756.55	238.27
756.88	238.13
757.20	237.92
757.53	237.77
757.86	237.65
758.19	237.56
758.51	237.47
758.84	237.31
759.17	237.19
759.49	237.11
759.82	237.10
760.15	237.05
760.47	236.95
760.80	236.81
761.13	236.76
761.45	236.68
761.78	236.61
762.11	236.55
762.43	236.37
762.76	236.30
763.08	236.25
763.41	236.19
763.74	236.11
764.06	236.01
764.39	235.95
764.71	235.88
765.04	235.77
765.37	235.68
765.69	235.60
766.02	235.53
766.34	235.46
766.67	235.32
767.00	235.29
767.32	235.32
767.65	235.36
767.97	235.28
768.30	235.23
768.62	235.16
768.95	235.06
769.27	235.00
769.60	234.95
769.92	234.86
770.25	234.76
770.57	234.68
770.90	234.63
771.22	234.56
771.55	234.52
771.87	234.48
772.20	234.42
772.52	234.51
772.85	234.67
773.17	234.62
773.50	234.55
773.82	234.46
774.15	234.32
774.47	234.15
774.80	234.08
775.12	234.03
775.45	233.98
775.77	233.95
776.09	233.91
776.42	233.87
776.74	233.88
777.07	233.84
777.39	233.81
777.72	233.76
778.04	233.74
778.36	233.68
778.69	233.64
779.01	233.62
779.33	233.43
779.66	233.19
779.98	233.13
780.31	233.10
780.63	233.14
780.95	233.14
781.28	233.10
781.60	233.06
781.92	233.02
782.25	232.99
782.57	232.96
782.89	232.90
783.22	232.84
783.54	232.77
783.86	232.75
784.19	232.71
784.51	232.73
784.83	232.66
785.16	232.63
785.48	232.59
785.80	232.56
786.12	232.54
786.45	232.50
786.77	232.50
787.09	232.46
787.42	232.37
787.74	232.35
788.06	232.32
788.38	232.29
788.71	232.25
789.03	232.24
789.35	232.23
789.67	232.18
789.99	232.18
790.32	232.13
790.64	232.13
790.96	232.26
791.28	232.16
791.61	232.13
791.93	232.11
792.25	232.08
792.57	232.17
792.89	232.12
793.21	232.10
793.54	232.07
793.86	232.02
794.18	232.01
794.50	231.95
794.82	231.91
795.14	231.91
795.47	231.93
795.79	231.90
796.11	231.82
796.43	231.81
796.75	231.78
797.07	231.76
797.39	231.72
797.71	231.56
798.04	231.56
798.36	231.56
798.68	231.54
799.00	231.54
799.32	231.43
799.64	231.45
799.96	231.41
800.28	231.40
800.60	231.38
800.92	231.37
801.24	231.34
801.56	231.34
801.89	231.30
802.21	231.29
802.53	231.25
802.85	231.27
803.17	231.33
803.49	231.27
803.81	231.23
804.13	231.21
804.45	231.17
804.77	231.16
805.09	231.12
805.41	231.09
805.73	231.03
806.05	230.97
806.37	230.95
806.69	230.92
807.01	230.90
807.33	230.90
807.65	230.82
807.97	230.88
808.28	230.83
808.60	230.81
808.92	230.78
809.24	230.86
809.56	230.83
809.88	230.74
810.20	230.74
810.52	230.77
810.84	230.73
811.16	230.70
811.48	230.68
811.80	230.73
812.12	230.72
812.43	230.74
812.75	230.74
813.07	230.72
813.39	230.71
813.71	230.67
814.03	230.64
814.35	230.64
814.67	230.57
814.98	230.56
815.30	230.54
815.62	230.50
815.94	230.38
816.26	230.39
816.58	230.36
816.89	230.36
817.21	230.31
817.53	230.33
817.85	230.33
818.17	230.31
818.48	230.24
818.80	230.26
819.12	230.22
819.44	230.18
819.76	230.14
820.07	230.13
820.39	230.12
820.71	230.12
821.03	230.11
821.34	230.09
821.66	230.10
821.98	230.11
822.30	230.09
822.61	230.19
822.93	230.16
823.25	230.14
823.57	230.10
823.88	230.11
824.20	230.08
824.52	230.09
824.83	230.07
825.15	230.04
825.47	230.01
825.79	230.03
826.10	230.00
826.42	230.00
826.74	230.00
827.05	229.99
827.37	229.99
827.69	229.98
828.00	229.98
828.32	229.97
828.64	229.94
828.95	230.04
829.27	229.97
829.58	229.95
829.90	229.98
830.22	230.00
830.53	229.96
830.85	229.95
831.17	229.91
831.48	229.92
831.80	229.92
832.11	229.91
832.43	229.88
832.75	229.89
833.06	229.98
833.38	229.93
833.69	229.93
834.01	229.92
834.32	229.91
834.64	229.88
834.96	229.88
835.27	229.88
835.59	229.81
835.90	229.78
836.22	229.78
836.53	229.73
836.85	229.70
837.16	229.88
837.48	229.89
837.79	229.94
838.11	229.93
838.42	229.93
838.74	229.94
839.05	229.92
839.37	229.90
839.68	229.79
840.00	229.78
840.31	229.79
840.63	229.77
840.94	229.76
841.26	229.73
841.57	229.71
841.88	229.73
842.20	229.71
842.51	229.67
842.83	229.66
843.14	229.83
843.46	229.83
843.77	229.72
844.08	229.71
844.40	229.64
844.71	229.61
845.03	229.58
845.34	229.56
845.65	229.56
845.97	229.56
846.28	229.57
846.60	229.59
846.91	229.56
847.22	229.54
847.54	229.57
847.85	229.59
848.16	229.58
848.48	229.55
848.79	229.60
849.10	229.62
849.42	229.63
849.73	229.45
850.04	229.44
850.36	229.38
850.67	229.41
850.98	229.42
851.30	229.43
851.61	229.44
851.92	229.44
852.23	229.49
852.55	229.49
852.86	229.50
853.17	229.51
853.49	229.54
853.80	229.57
854.11	229.58
854.42	229.60
854.74	229.58
855.05	229.59
855.36	229.50
855.67	229.49
855.99	229.48
856.30	229.70
856.61	229.69
856.92	229.70
857.23	229.69
857.55	229.67
857.86	229.65
858.17	229.68
858.48	229.65
858.79	229.60
859.11	229.62
859.42	229.60
859.73	229.57
860.04	229.56
860.35	229.50
860.66	229.45
860.98	229.44
861.29	229.46
861.60	229.44
861.91	229.49
862.22	229.46
862.53	229.44
862.84	229.23
863.16	229.27
863.47	229.23
863.78	229.20
864.09	229.22
864.40	229.24
864.71	229.25
865.02	229.27
865.33	229.25
865.64	229.23
865.95	229.23
866.27	229.35
866.58	229.33
866.89	229.36
867.20	229.35
867.51	229.34
867.82	229.32
868.13	229.38
868.44	229.33
868.75	229.37
869.06	229.37
869.37	229.39
869.68	229.33
869.99	229.37
870.30	229.39
870.61	229.41
870.92	229.37
871.23	229.35
871.54	229.37
871.85	229.40
872.16	229.42
872.47	229.40
872.78	229.31
873.09	229.32
873.40	229.30
873.71	229.32
874.02	229.32
874.33	229.31
874.64	229.27
874.95	229.30
875.26	229.26
875.56	229.27
875.87	229.26
876.18	229.26
876.49	229.43
876.80	229.40
877.11	229.36
877.42	229.37
877.73	229.37
878.04	229.34
878.35	229.35
878.66	229.34
878.96	229.35
879.27	229.34
879.58	229.33
879.89	229.33
880.20	229.37
880.51	229.36
880.82	229.36
881.12	229.37
881.43	229.34
881.74	229.32
882.05	229.31
882.36	229.32
882.67	229.33
882.97	229.14
883.28	229.13
883.59	229.13
883.90	229.17
884.21	229.19
884.51	229.18
884.82	229.14
885.13	229.14
885.44	229.13
885.74	229.12
886.05	229.11
886.36	229.11
886.67	229.04
886.98	229.12
887.28	229.14
887.59	229.13
887.90	229.14
888.20	229.13
888.51	229.16
888.82	229.13
889.13	229.13
889.43	229.29
889.74	229.28
890.05	229.28
890.35	229.25
890.66	229.22
890.97	229.21
891.28	229.19
891.58	229.19
891.89	229.20
892.20	229.17
892.50	229.15
892.81	229.14
893.12	229.15
893.42	229.06
893.73	229.07
894.04	229.06
894.34	229.07
894.65	229.07
894.95	229.05
895.26	229.05
895.57	229.11
895.87	228.93
896.18	228.97
896.48	228.97
896.79	228.97
897.10	228.99
897.40	229.01
897.71	229.03
898.01	229.01
898.32	229.02
898.63	229.02
898.93	229.04
899.24	229.03
899.54	229.02
899.85	229.02
900.15	229.01
900.46	229.02
900.76	229.03
901.07	229.03
901.38	229.01
901.68	229.04
901.99	228.96
902.29	228.99
902.60	228.95
902.90	228.94
903.21	228.93
903.51	228.90
903.82	228.93
904.12	228.93
904.43	228.95
904.73	228.95
905.03	228.96
905.34	229.13
905.64	229.12
905.95	229.12
906.25	229.13
906.56	229.11
906.86	229.12
907.17	229.09
907.47	229.10
907.77	229.08
908.08	229.04
908.38	229.05
908.69	229.05
908.99	229.09
909.30	229.10
909.60	229.09
909.90	229.10
910.21	229.04
910.51	229.02
910.81	229.02
911.12	229.01
911.42	229.01
911.73	228.83
912.03	228.86
912.33	228.89
912.64	228.87
912.94	228.85
913.24	228.83
913.55	228.82
913.85	228.81
914.15	228.84
914.46	228.87
914.76	228.85
915.06	228.83
915.37	228.80
915.67	228.79
915.97	228.79
916.27	228.78
916.58	228.78
916.88	228.78
917.18	228.77
917.49	228.89
917.79	228.89
918.09	228.91
918.39	228.95
918.70	228.94
919.00	228.95
919.30	229.03
919.60	229.02
919.91	229.00
920.21	229.01
920.51	228.98
920.81	228.97
921.12	229.00
921.42	229.00
921.72	229.01
922.02	229.03
922.32	229.06
922.63	229.06
922.93	229.16
923.23	229.16
923.53	229.15
923.83	229.03
924.13	229.04
924.44	229.03
924.74	229.04
925.04	229.07
925.34	229.08
925.64	229.00
925.94	229.00
926.24	229.10
926.55	229.08
926.85	229.10
927.15	229.11
927.45	229.11
927.75	229.10
928.05	229.10
928.35	229.08
928.65	229.11
928.95	229.13
929.26	229.05
929.56	229.08
929.86	229.09
930.16	229.08
930.46	229.07
930.76	229.08
931.06	229.00
931.36	228.96
931.66	228.99
931.96	229.01
932.26	229.03
932.56	228.97
932.86	228.99
933.16	228.98
933.46	228.96
933.76	228.94
934.06	228.97
934.36	229.03
934.66	229.02
934.96	228.99
935.26	228.99
935.56	229.02
935.86	228.97
936.16	228.95
936.46	228.93
936.76	228.92
937.06	228.89
937.36	228.90
937.66	228.91
937.96	228.89
938.26	228.85
938.56	228.83
938.86	228.83
939.16	228.86
939.46	228.88
939.76	228.90
940.06	228.89
940.35	228.86
940.65	228.76
940.95	228.78
941.25	228.73
941.55	228.72
941.85	228.70
942.15	228.74
942.45	228.79
942.75	228.80
943.04	228.81
943.34	228.84
943.64	228.84
943.94	228.81
944.24	228.83
944.54	228.85
944.84	228.84
945.13	228.81
945.43	228.77
945.73	228.76
946.03	228.74
946.33	228.73
946.62	228.73
946.92	228.73
947.22	228.74
947.52	228.76
947.82	228.78
948.11	228.76
948.41	228.72
948.71	228.67
949.01	228.68
949.31	228.66
949.60	228.65
949.90	228.67
950.20	228.66
950.50	228.65
950.79	228.63
951.09	228.66
951.39	228.67
951.69	228.66
951.98	228.69
952.28	228.69
952.58	228.69
952.87	228.68
953.17	228.70
953.47	228.67
953.76	228.67
954.06	228.64
954.36	228.62
954.66	228.62
954.95	228.67
955.25	228.69
955.55	228.70
955.84	228.68
956.14	228.69
956.44	228.71
956.73	228.69
957.03	228.70
957.32	228.70
957.62	228.69
957.92	228.72
958.21	228.70
958.51	228.91
958.81	228.94
959.10	228.97
959.40	229.00
959.69	229.02
959.99	229.05
960.29	229.05
960.58	229.04
960.88	229.11
961.17	229.09
961.47	229.10
961.76	229.08
962.06	229.12
962.36	229.10
962.65	229.10
962.95	229.10
963.24	229.09
963.54	229.09
963.83	229.11
964.13	229.09
964.42	229.07
964.72	228.92
965.01	228.91
965.31	228.89
965.60	228.85
965.90	228.96
966.19	228.92
966.49	228.93
966.78	228.93
967.08	228.90
967.37	228.89
967.67	228.86
967.96	228.90
968.26	228.87
968.55	228.90
968.85	228.89
969.14	228.88
969.43	228.89
969.73	228.87
970.02	228.85
970.32	228.85
970.61	228.82
970.91	228.77
971.20	228.74
971.49	228.72
971.79	228.74
972.08	228.61
972.38	228.63
972.67	228.62
972.96	228.64
973.26	228.61
973.55	228.67
973.85	228.66
974.14	228.65
974.43	228.67
974.73	228.64
975.02	228.63
975.31	228.63
975.61	228.63
975.90	228.61
976.19	228.60
976.49	228.61
976.78	228.63
977.07	228.63
977.37	228.66
977.66	228.68
977.95	228.65
978.24	228.67
978.54	228.70
978.83	228.69
979.12	228.69
979.42	228.69
979.71	228.65
980.00	228.65
980.29	228.64
980.59	228.60
980.88	228.64
981.17	228.63
981.46	228.63
981.76	228.63
982.05	228.69
982.34	228.71
982.63	228.71
982.93	228.71
983.22	228.74
983.51	228.75
983.80	228.77
984.09	228.79
984.39	228.77
984.68	228.76
984.97	228.76
985.26	228.75
985.55	228.76
985.85	228.73
986.14	228.76
986.43	228.77
986.72	228.77
987.01	228.72
987.30	228.72
987.59	228.71
987.89	228.72
988.18	228.66
988.47	228.64
988.76	228.63
989.05	228.62
989.34	228.60
989.63	228.64
989.92	228.61
990.22	228.59
990.51	228.59
990.80	228.58
991.09	228.60
991.38	228.62
991.67	228.60
991.96	228.59
992.25	228.59
992.54	228.56
992.83	228.56
993.12	228.56
993.41	228.59
993.70	228.66
993.99	228.69
994.28	228.72
994.58	228.75
994.87	228.74
995.16	228.74
995.45	228.73
995.74	228.66
996.03	228.69
996.32	228.73
996.61	228.75
996.90	228.75
997.19	228.74
997.48	228.75
997.77	228.75
998.06	228.75
998.34	228.75
998.63	228.76
998.92	228.77
999.21	228.80
999.50	228.80
999.79	228.74
1000.08	228.73
1000.37	228.73
1000.66	228.70
1000.95	228.75
1001.24	228.76
1001.53	228.78
1001.82	228.78
1002.11	228.73
1002.40	228.74
1002.68	228.78
1002.97	228.91
1003.26	228.88
1003.55	228.86
1003.84	228.87
1004.13	228.93
1004.42	228.91
1004.71	228.91
1004.99	228.89
1005.28	228.92
1005.57	228.91
1005.86	228.90
1006.15	228.89
1006.44	228.87
1006.72	228.89
1007.01	228.85
1007.30	228.85
1007.59	228.83
1007.88	228.83
1008.17	228.85
1008.45	228.81
1008.74	228.73
1009.03	228.64
1009.32	228.65
1009.60	228.64
1009.89	228.62
1010.18	228.55
1010.47	228.55
1010.76	228.55
1011.04	228.56
1011.33	228.56
1011.62	228.56
1011.91	228.57
1012.19	228.57
1012.48	228.57
1012.77	228.57
1013.05	228.63
1013.34	228.64
1013.63	228.63
1013.92	228.63
1014.20	228.61
1014.49	228.62
1014.78	228.65
1015.06	228.60
1015.35	228.60
1015.64	228.63
1015.92	228.66
1016.21	228.66
1016.50	228.67
1016.78	228.68
1017.07	228.69
1017.36	228.65
1017.64	228.63
1017.93	228.64
1018.22	228.63
1018.50	228.63
1018.79	228.62
1019.08	228.56
1019.36	228.56
1019.65	228.55
1019.93	228.60
1020.22	228.62
1020.51	228.71
1020.79	228.68
1021.08	228.36
1021.36	228.22
1021.65	228.72
1021.94	228.57
1022.22	228.65
1022.51	228.25
1022.79	229.43
1023.08	228.71
1023.36	230.74
1023.65	228.22
>>>>>End Processed Spectral Data<<<<<
