SpectraSuite Data File
++++++++++++++++++++++++++++++++++++
Date: Tue Oct 06 12:26:52 EDT 2015
User: lab3
Dark Spectrum Present: No
Reference Spectrum Present: No
Number of Sampled Component Spectra: 1
Spectrometers: USB2E7196
Integration Time (usec): 66000 (USB2E7196)
Spectra Averaged: 1000 (USB2E7196)
Boxcar Smoothing: 10 (USB2E7196)
Correct for Electrical Dark: No (USB2E7196)
Strobe/Lamp Enabled: No (USB2E7196)
Correct for Detector Non-linearity: No (USB2E7196)
Correct for Stray Light: No (USB2E7196)
Number of Pixels in Processed Spectrum: 2048
>>>>>Begin Processed Spectral Data<<<<<
339.09	0.00
339.48	216.77
339.86	218.16
340.24	219.48
340.63	221.13
341.01	224.86
341.39	223.80
341.78	225.22
342.16	226.43
342.54	226.90
342.93	215.17
343.31	226.03
343.69	226.57
344.07	227.03
344.46	227.49
344.84	227.88
345.22	228.08
345.60	228.35
345.99	228.55
346.37	228.69
346.75	228.80
347.13	228.88
347.52	228.96
347.90	229.08
348.28	229.13
348.66	229.21
349.05	229.21
349.43	229.27
349.81	229.34
350.19	229.40
350.57	229.47
350.96	229.56
351.34	229.67
351.72	229.77
352.10	229.88
352.48	229.95
352.87	230.00
353.25	230.05
353.63	230.11
354.01	230.17
354.39	230.24
354.77	230.31
355.15	230.43
355.54	230.46
355.92	230.47
356.30	230.54
356.68	230.72
357.06	230.80
357.44	230.84
357.82	230.91
358.20	231.14
358.58	231.20
358.97	231.27
359.35	231.35
359.73	231.45
360.11	231.51
360.49	231.57
360.87	231.61
361.25	231.69
361.63	231.80
362.01	231.86
362.39	231.88
362.77	231.93
363.15	231.96
363.53	231.99
363.91	232.04
364.29	232.06
364.67	231.90
365.05	231.93
365.43	231.97
365.81	232.00
366.19	231.94
366.57	232.02
366.95	232.00
367.33	231.96
367.71	231.95
368.09	231.99
368.47	231.99
368.85	231.98
369.23	232.01
369.61	231.93
369.99	231.96
370.37	231.96
370.75	232.07
371.13	232.03
371.51	231.99
371.89	231.97
372.27	231.96
372.65	231.95
373.03	231.90
373.41	231.84
373.78	231.78
374.16	231.66
374.54	231.56
374.92	231.51
375.30	231.48
375.68	231.41
376.06	231.36
376.44	231.30
376.82	231.26
377.19	231.21
377.57	231.16
377.95	231.05
378.33	231.00
378.71	230.81
379.09	230.77
379.47	230.74
379.84	230.67
380.22	230.60
380.60	230.53
380.98	230.50
381.36	230.45
381.73	230.39
382.11	230.36
382.49	230.32
382.87	230.26
383.25	230.21
383.62	230.37
384.00	230.29
384.38	230.27
384.76	230.27
385.13	230.27
385.51	230.24
385.89	230.19
386.27	230.16
386.64	230.16
387.02	230.10
387.40	230.06
387.78	230.03
388.15	230.02
388.53	229.99
388.91	229.94
389.29	229.91
389.66	229.92
390.04	229.89
390.42	229.91
390.79	229.92
391.17	229.90
391.55	229.70
391.92	229.70
392.30	229.70
392.68	229.65
393.05	229.64
393.43	229.64
393.81	229.66
394.18	229.66
394.56	229.67
394.94	229.73
395.31	229.75
395.69	229.83
396.06	229.88
396.44	229.93
396.82	229.97
397.19	230.09
397.57	230.10
397.95	230.16
398.32	230.16
398.70	230.22
399.07	230.31
399.45	230.36
399.82	230.43
400.20	230.49
400.58	230.57
400.95	230.59
401.33	230.71
401.70	230.93
402.08	231.07
402.45	231.19
402.83	231.35
403.20	231.50
403.58	231.62
403.95	231.83
404.33	232.05
404.71	232.25
405.08	232.56
405.46	232.80
405.83	233.08
406.21	233.37
406.58	233.69
406.96	234.01
407.33	234.38
407.70	234.79
408.08	235.34
408.45	235.84
408.83	236.37
409.20	236.87
409.58	237.31
409.95	237.91
410.33	238.56
410.70	239.18
411.08	239.91
411.45	240.69
411.82	241.47
412.20	242.37
412.57	243.44
412.95	244.29
413.32	245.38
413.69	246.51
414.07	247.73
414.44	249.06
414.82	250.41
415.19	252.00
415.56	253.61
415.94	255.29
416.31	257.18
416.68	259.06
417.06	261.26
417.43	263.29
417.81	265.65
418.18	268.06
418.55	270.68
418.93	273.43
419.30	276.27
419.67	279.32
420.04	282.45
420.42	285.72
420.79	289.50
421.16	293.33
421.54	297.21
421.91	301.25
422.28	305.45
422.66	309.96
423.03	314.26
423.40	318.77
423.77	323.59
424.15	328.53
424.52	333.64
424.89	339.20
425.26	344.70
425.64	349.82
426.01	355.56
426.38	361.43
426.75	367.46
427.13	373.64
427.50	380.09
427.87	386.77
428.24	393.48
428.61	399.93
428.99	406.87
429.36	414.55
429.73	421.88
430.10	429.17
430.47	436.66
430.85	444.40
431.22	452.64
431.59	461.10
431.96	469.33
432.33	478.51
432.70	487.25
433.08	497.65
433.45	507.43
433.82	517.02
434.19	527.77
434.56	538.33
434.93	548.55
435.30	558.72
435.68	570.27
436.05	581.55
436.42	592.83
436.79	603.14
437.16	614.24
437.53	626.20
437.90	638.22
438.27	649.89
438.64	662.46
439.01	673.92
439.38	684.54
439.75	694.73
440.13	706.31
440.50	717.33
440.87	726.07
441.24	735.68
441.61	746.23
441.98	753.97
442.35	763.13
442.72	772.54
443.09	781.56
443.46	787.47
443.83	791.85
444.20	795.44
444.57	800.75
444.94	803.97
445.31	807.16
445.68	809.81
446.05	811.81
446.42	811.44
446.79	810.88
447.16	810.32
447.53	809.97
447.90	806.51
448.27	803.14
448.64	797.89
449.01	794.35
449.37	787.04
449.74	780.45
450.11	771.91
450.48	762.48
450.85	752.93
451.22	744.61
451.59	736.56
451.96	729.37
452.33	718.92
452.70	709.51
453.07	698.16
453.43	686.89
453.80	675.92
454.17	665.44
454.54	655.65
454.91	644.58
455.28	634.08
455.65	624.15
456.02	613.74
456.38	605.35
456.75	594.52
457.12	585.80
457.49	577.00
457.86	568.71
458.23	561.43
458.59	553.39
458.96	545.18
459.33	537.97
459.70	530.61
460.07	524.89
460.43	518.20
460.80	511.96
461.17	506.47
461.54	500.63
461.91	495.16
462.27	489.59
462.64	485.05
463.01	479.87
463.38	474.71
463.74	470.01
464.11	465.88
464.48	462.15
464.85	458.07
465.21	454.91
465.58	451.46
465.95	447.52
466.32	444.33
466.68	441.22
467.05	438.09
467.42	435.02
467.78	431.80
468.15	428.85
468.52	426.65
468.88	423.80
469.25	421.16
469.62	419.06
469.98	416.77
470.35	414.72
470.72	412.86
471.08	410.97
471.45	409.38
471.82	407.60
472.18	405.74
472.55	404.54
472.92	403.08
473.28	401.92
473.65	400.66
474.02	399.54
474.38	398.58
474.75	397.98
475.11	397.15
475.48	396.77
475.85	396.37
476.21	396.16
476.58	396.02
476.94	396.21
477.31	396.28
477.67	396.44
478.04	396.76
478.41	397.17
478.77	397.77
479.14	398.13
479.50	398.90
479.87	399.88
480.23	400.86
480.60	401.77
480.96	402.70
481.33	404.09
481.69	405.46
482.06	406.84
482.42	408.14
482.79	409.72
483.15	411.56
483.52	413.65
483.88	415.65
484.25	417.79
484.61	420.03
484.98	422.42
485.34	425.11
485.71	427.90
486.07	430.90
486.44	433.83
486.80	437.15
487.17	440.50
487.53	444.20
487.90	448.05
488.26	452.30
488.62	456.74
488.99	461.20
489.35	465.92
489.72	470.97
490.08	476.30
490.44	481.72
490.81	487.29
491.17	492.98
491.54	499.07
491.90	505.31
492.26	511.97
492.63	518.94
492.99	526.15
493.36	533.65
493.72	541.53
494.08	549.57
494.45	558.03
494.81	566.91
495.17	575.96
495.54	585.51
495.90	595.45
496.26	605.66
496.63	616.10
496.99	626.89
497.35	638.10
497.72	649.67
498.08	661.70
498.44	674.01
498.80	687.09
499.17	700.50
499.53	714.33
499.89	728.50
500.26	742.80
500.62	757.40
500.98	772.68
501.34	788.12
501.71	804.30
502.07	820.71
502.43	837.59
502.79	854.59
503.16	872.09
503.52	889.78
503.88	907.93
504.24	926.56
504.60	945.42
504.97	964.76
505.33	984.52
505.69	1005.19
506.05	1025.94
506.41	1046.62
506.78	1067.63
507.14	1089.46
507.50	1111.72
507.86	1134.39
508.22	1157.16
508.59	1179.76
508.95	1203.26
509.31	1227.17
509.67	1251.78
510.03	1276.11
510.39	1300.90
510.75	1325.72
511.12	1350.64
511.48	1375.54
511.84	1400.53
512.20	1426.04
512.56	1451.86
512.92	1477.50
513.28	1502.86
513.64	1528.54
514.00	1554.30
514.37	1580.17
514.73	1605.79
515.09	1630.95
515.45	1656.39
515.81	1681.87
516.17	1707.45
516.53	1732.31
516.89	1757.17
517.25	1782.10
517.61	1806.95
517.97	1831.94
518.33	1856.39
518.69	1880.77
519.05	1905.40
519.41	1929.91
519.77	1954.33
520.13	1978.50
520.49	2002.47
520.85	2026.48
521.21	2050.34
521.57	2074.27
521.93	2097.29
522.29	2120.65
522.65	2143.52
523.01	2166.24
523.37	2188.12
523.73	2210.38
524.09	2232.78
524.45	2255.14
524.81	2276.55
525.17	2297.87
525.53	2318.49
525.89	2339.48
526.25	2359.98
526.61	2379.32
526.97	2398.83
527.33	2417.75
527.68	2435.81
528.04	2453.30
528.40	2469.76
528.76	2486.70
529.12	2502.58
529.48	2518.88
529.84	2533.93
530.20	2549.96
530.56	2564.81
530.91	2579.64
531.27	2593.54
531.63	2606.46
531.99	2619.13
532.35	2630.23
532.71	2641.34
533.07	2652.73
533.42	2662.64
533.78	2673.31
534.14	2684.08
534.50	2693.49
534.86	2703.06
535.21	2710.75
535.57	2718.66
535.93	2726.90
536.29	2733.98
536.65	2741.17
537.00	2746.23
537.36	2751.75
537.72	2755.60
538.08	2759.24
538.44	2761.99
538.79	2765.09
539.15	2767.52
539.51	2769.31
539.87	2771.74
540.22	2772.13
540.58	2773.11
540.94	2773.50
541.29	2772.59
541.65	2770.26
542.01	2767.94
542.37	2764.64
542.72	2762.96
543.08	2759.88
543.44	2756.57
543.79	2751.52
544.15	2746.40
544.51	2742.00
544.87	2735.70
545.22	2728.90
545.58	2722.35
545.94	2716.60
546.29	2708.97
546.65	2700.70
547.01	2692.47
547.36	2683.89
547.72	2675.26
548.07	2665.36
548.43	2655.40
548.79	2644.26
549.14	2634.18
549.50	2623.92
549.86	2613.08
550.21	2600.49
550.57	2589.19
550.92	2576.21
551.28	2564.00
551.64	2551.96
551.99	2539.97
552.35	2528.04
552.70	2515.85
553.06	2503.95
553.41	2490.79
553.77	2477.49
554.13	2464.42
554.48	2450.60
554.84	2436.29
555.19	2422.87
555.55	2408.70
555.90	2394.68
556.26	2381.61
556.61	2367.75
556.97	2352.97
557.32	2338.52
557.68	2324.21
558.03	2309.38
558.39	2295.31
558.74	2281.42
559.10	2265.67
559.45	2250.45
559.81	2235.87
560.16	2221.02
560.52	2205.83
560.87	2191.48
561.23	2176.61
561.58	2162.06
561.94	2146.79
562.29	2131.78
562.64	2116.58
563.00	2101.53
563.35	2087.09
563.71	2072.36
564.06	2057.38
564.42	2042.92
564.77	2028.47
565.12	2014.54
565.48	2000.34
565.83	1985.88
566.19	1971.48
566.54	1957.56
566.89	1942.46
567.25	1926.94
567.60	1912.67
567.96	1897.76
568.31	1882.35
568.66	1867.75
569.02	1853.15
569.37	1838.84
569.72	1824.68
570.08	1810.54
570.43	1796.22
570.78	1781.17
571.14	1766.16
571.49	1751.44
571.84	1737.49
572.20	1722.31
572.55	1707.31
572.90	1691.88
573.26	1676.53
573.61	1660.99
573.96	1645.97
574.31	1631.60
574.67	1617.68
575.02	1602.84
575.37	1587.78
575.72	1572.61
576.08	1557.88
576.43	1543.23
576.78	1528.53
577.13	1513.98
577.49	1499.36
577.84	1484.77
578.19	1470.34
578.54	1456.00
578.90	1441.56
579.25	1426.64
579.60	1412.83
579.95	1399.01
580.30	1385.37
580.66	1371.77
581.01	1358.32
581.36	1344.71
581.71	1331.05
582.06	1317.46
582.42	1304.06
582.77	1291.09
583.12	1278.35
583.47	1265.40
583.82	1252.64
584.17	1239.83
584.53	1227.13
584.88	1214.79
585.23	1202.21
585.58	1189.94
585.93	1177.67
586.28	1165.98
586.63	1154.18
586.98	1142.33
587.34	1130.78
587.69	1119.07
588.04	1107.65
588.39	1096.42
588.74	1085.09
589.09	1074.17
589.44	1062.70
589.79	1051.78
590.14	1040.99
590.49	1030.36
590.84	1019.96
591.19	1009.57
591.54	999.26
591.89	988.71
592.25	978.23
592.60	967.80
592.95	957.56
593.30	947.39
593.65	937.16
594.00	927.22
594.35	917.91
594.70	908.14
595.05	898.99
595.40	889.66
595.75	880.18
596.10	871.22
596.45	862.08
596.80	853.37
597.15	844.66
597.50	835.95
597.85	827.58
598.19	819.17
598.54	810.79
598.89	802.56
599.24	794.73
599.59	787.04
599.94	779.74
600.29	772.26
600.64	764.86
600.99	757.45
601.34	750.23
601.69	742.45
602.04	735.27
602.39	728.21
602.74	721.38
603.08	714.64
603.43	707.91
603.78	701.30
604.13	694.82
604.48	688.33
604.83	682.07
605.18	675.76
605.53	669.59
605.87	663.31
606.22	657.29
606.57	651.24
606.92	645.05
607.27	639.04
607.62	633.37
607.96	627.75
608.31	622.43
608.66	616.97
609.01	611.79
609.36	606.81
609.70	601.71
610.05	596.57
610.40	591.56
610.75	586.50
611.10	581.75
611.44	576.94
611.79	572.22
612.14	567.50
612.49	562.76
612.83	558.26
613.18	553.97
613.53	549.72
613.88	545.47
614.22	541.45
614.57	537.34
614.92	533.25
615.27	529.31
615.61	525.38
615.96	521.55
616.31	517.71
616.65	513.85
617.00	510.12
617.35	506.47
617.70	502.91
618.04	499.53
618.39	496.06
618.74	492.74
619.08	489.35
619.43	486.05
619.78	482.87
620.12	479.73
620.47	476.73
620.82	473.70
621.16	470.76
621.51	467.93
621.85	465.16
622.20	462.45
622.55	459.71
622.89	457.02
623.24	454.49
623.59	451.98
623.93	449.53
624.28	447.14
624.62	445.01
624.97	442.82
625.32	440.47
625.66	438.14
626.01	435.85
626.35	433.77
626.70	431.62
627.04	429.65
627.39	427.55
627.73	425.51
628.08	423.59
628.43	421.71
628.77	419.79
629.12	417.96
629.46	416.10
629.81	414.40
630.15	412.63
630.50	410.84
630.84	409.16
631.19	407.53
631.53	405.96
631.88	404.16
632.22	402.50
632.57	401.15
632.91	399.78
633.26	398.47
633.60	397.07
633.95	395.78
634.29	394.34
634.64	393.00
634.98	391.53
635.32	390.21
635.67	388.98
636.01	387.76
636.36	386.58
636.70	385.53
637.05	384.31
637.39	383.23
637.73	382.14
638.08	381.09
638.42	380.03
638.77	378.88
639.11	377.72
639.45	376.62
639.80	375.47
640.14	374.37
640.49	373.22
640.83	372.14
641.17	371.06
641.52	370.01
641.86	369.03
642.20	368.21
642.55	367.20
642.89	366.20
643.23	365.20
643.58	364.33
643.92	363.30
644.26	362.36
644.61	361.48
644.95	360.58
645.29	359.66
645.64	358.72
645.98	357.85
646.32	357.06
646.66	356.21
647.01	355.33
647.35	354.53
647.69	353.73
648.04	352.96
648.38	352.17
648.72	351.44
649.06	350.69
649.41	349.88
649.75	349.13
650.09	348.42
650.43	347.74
650.78	346.97
651.12	346.25
651.46	345.54
651.80	344.84
652.14	344.13
652.49	343.46
652.83	342.75
653.17	342.07
653.51	341.41
653.85	340.84
654.20	340.23
654.54	339.53
654.88	338.88
655.22	338.25
655.56	337.56
655.90	336.89
656.25	336.24
656.59	335.60
656.93	335.03
657.27	334.48
657.61	333.81
657.95	333.24
658.29	332.65
658.64	332.14
658.98	331.56
659.32	330.97
659.66	330.41
660.00	329.88
660.34	329.31
660.68	328.75
661.02	328.12
661.36	327.51
661.70	326.95
662.05	326.43
662.39	325.94
662.73	325.50
663.07	325.09
663.41	324.60
663.75	324.08
664.09	323.54
664.43	322.94
664.77	322.45
665.11	321.87
665.45	321.36
665.79	320.80
666.13	320.26
666.47	319.72
666.81	319.16
667.15	318.55
667.49	318.08
667.83	317.65
668.17	317.19
668.51	316.77
668.85	316.34
669.19	315.97
669.53	315.44
669.87	314.94
670.21	314.46
670.55	313.99
670.89	313.65
671.23	313.21
671.57	312.80
671.91	312.40
672.25	312.03
672.58	311.66
672.92	311.22
673.26	310.81
673.60	310.41
673.94	310.03
674.28	309.68
674.62	309.30
674.96	308.83
675.30	308.42
675.64	307.99
675.97	307.55
676.31	307.02
676.65	306.58
676.99	306.22
677.33	305.73
677.67	305.30
678.01	304.75
678.34	304.30
678.68	303.87
679.02	303.41
679.36	302.97
679.70	302.51
680.04	302.07
680.37	301.63
680.71	301.21
681.05	300.79
681.39	300.35
681.73	299.87
682.06	299.42
682.40	299.01
682.74	298.60
683.08	298.26
683.42	297.84
683.75	297.43
684.09	296.91
684.43	296.47
684.77	296.02
685.10	295.63
685.44	295.25
685.78	294.84
686.12	294.42
686.45	293.97
686.79	293.50
687.13	293.09
687.46	292.63
687.80	292.21
688.14	291.71
688.48	291.29
688.81	290.87
689.15	290.50
689.49	290.02
689.82	289.56
690.16	289.04
690.50	288.60
690.83	288.17
691.17	287.71
691.51	287.30
691.84	286.92
692.18	286.47
692.52	285.99
692.85	285.56
693.19	285.21
693.52	284.82
693.86	284.41
694.20	284.01
694.53	283.61
694.87	283.15
695.21	282.74
695.54	282.33
695.88	281.87
696.21	281.37
696.55	280.97
696.88	280.56
697.22	280.14
697.56	279.74
697.89	279.27
698.23	278.88
698.56	278.44
698.90	278.03
699.23	277.60
699.57	277.20
699.90	276.76
700.24	276.26
700.58	275.86
700.91	275.50
701.25	275.26
701.58	274.95
701.92	274.64
702.25	274.28
702.59	273.88
702.92	273.50
703.26	273.13
703.59	272.74
703.93	272.49
704.26	272.12
704.60	271.74
704.93	271.35
705.26	270.96
705.60	270.62
705.93	270.20
706.27	269.87
706.60	269.55
706.94	269.24
707.27	268.87
707.61	268.49
707.94	268.09
708.27	267.54
708.61	267.10
708.94	266.69
709.28	266.31
709.61	265.94
709.94	265.61
710.28	265.30
710.61	265.01
710.95	264.55
711.28	264.33
711.61	264.00
711.95	263.73
712.28	263.39
712.61	263.03
712.95	262.80
713.28	262.55
713.61	262.20
713.95	261.85
714.28	261.55
714.61	261.23
714.95	260.92
715.28	260.62
715.61	260.33
715.95	260.05
716.28	259.76
716.61	259.50
716.95	259.17
717.28	258.87
717.61	258.52
717.94	258.23
718.28	257.82
718.61	257.54
718.94	257.22
719.27	256.96
719.61	256.72
719.94	256.43
720.27	256.07
720.60	255.80
720.94	255.53
721.27	255.28
721.60	255.06
721.93	254.78
722.27	254.59
722.60	254.37
722.93	254.09
723.26	253.86
723.59	253.60
723.93	253.40
724.26	253.18
724.59	252.96
724.92	252.75
725.25	252.59
725.59	252.38
725.92	252.20
726.25	251.98
726.58	251.74
726.91	251.50
727.24	251.32
727.57	251.09
727.91	250.85
728.24	250.67
728.57	250.45
728.90	250.28
729.23	250.02
729.56	249.90
729.89	249.71
730.22	249.50
730.55	249.30
730.89	249.09
731.22	248.88
731.55	248.67
731.88	248.48
732.21	248.25
732.54	248.04
732.87	247.84
733.20	247.67
733.53	247.51
733.86	247.34
734.19	247.14
734.52	247.00
734.85	246.96
735.18	246.76
735.51	246.64
735.84	246.48
736.17	246.35
736.50	246.08
736.83	246.12
737.16	245.95
737.49	245.80
737.82	245.63
738.15	245.49
738.48	245.32
738.81	245.15
739.14	244.97
739.47	244.81
739.80	244.66
740.13	244.51
740.46	244.31
740.79	244.15
741.12	243.99
741.45	243.81
741.78	243.57
742.11	243.47
742.44	243.28
742.77	243.14
743.10	242.96
743.43	242.82
743.75	242.49
744.08	242.61
744.41	242.45
744.74	242.32
745.07	242.14
745.40	242.06
745.73	242.00
746.06	241.88
746.39	241.78
746.71	241.63
747.04	241.49
747.37	241.36
747.70	241.27
748.03	241.14
748.36	241.06
748.68	240.93
749.01	240.76
749.34	240.66
749.67	240.55
750.00	240.47
750.33	240.49
750.65	240.40
750.98	240.03
751.31	239.94
751.64	239.83
751.97	239.82
752.29	239.69
752.62	239.50
752.95	239.38
753.28	239.25
753.60	239.13
753.93	239.06
754.26	238.97
754.59	238.80
754.91	238.68
755.24	238.55
755.57	238.52
755.90	238.41
756.22	238.28
756.55	238.15
756.88	238.01
757.20	237.79
757.53	237.64
757.86	237.54
758.19	237.45
758.51	237.36
758.84	237.18
759.17	237.06
759.49	236.98
759.82	236.98
760.15	236.91
760.47	236.82
760.80	236.69
761.13	236.64
761.45	236.56
761.78	236.48
762.11	236.40
762.43	236.24
762.76	236.16
763.08	236.09
763.41	236.03
763.74	235.96
764.06	235.88
764.39	235.82
764.71	235.73
765.04	235.64
765.37	235.54
765.69	235.48
766.02	235.40
766.34	235.32
766.67	235.19
767.00	235.15
767.32	235.17
767.65	235.22
767.97	235.13
768.30	235.08
768.62	235.01
768.95	234.93
769.27	234.84
769.60	234.81
769.92	234.71
770.25	234.60
770.57	234.51
770.90	234.46
771.22	234.38
771.55	234.33
771.87	234.29
772.20	234.24
772.52	234.34
772.85	234.50
773.17	234.45
773.50	234.38
773.82	234.31
774.15	234.17
774.47	234.00
774.80	233.94
775.12	233.88
775.45	233.83
775.77	233.81
776.09	233.79
776.42	233.74
776.74	233.76
777.07	233.72
777.39	233.70
777.72	233.64
778.04	233.62
778.36	233.56
778.69	233.51
779.01	233.48
779.33	233.28
779.66	233.03
779.98	232.97
780.31	232.94
780.63	232.96
780.95	232.95
781.28	232.91
781.60	232.85
781.92	232.82
782.25	232.79
782.57	232.75
782.89	232.69
783.22	232.64
783.54	232.55
783.86	232.54
784.19	232.49
784.51	232.52
784.83	232.47
785.16	232.43
785.48	232.40
785.80	232.35
786.12	232.33
786.45	232.31
786.77	232.30
787.09	232.26
787.42	232.15
787.74	232.12
788.06	232.10
788.38	232.08
788.71	232.04
789.03	232.01
789.35	232.01
789.67	231.95
789.99	231.95
790.32	231.91
790.64	231.90
790.96	232.03
791.28	231.93
791.61	231.90
791.93	231.90
792.25	231.87
792.57	231.97
792.89	231.93
793.21	231.91
793.54	231.86
793.86	231.82
794.18	231.82
794.50	231.76
794.82	231.74
795.14	231.73
795.47	231.74
795.79	231.73
796.11	231.67
796.43	231.66
796.75	231.63
797.07	231.62
797.39	231.59
797.71	231.43
798.04	231.43
798.36	231.42
798.68	231.39
799.00	231.38
799.32	231.28
799.64	231.29
799.96	231.26
800.28	231.28
800.60	231.25
800.92	231.25
801.24	231.22
801.56	231.22
801.89	231.19
802.21	231.17
802.53	231.11
802.85	231.13
803.17	231.19
803.49	231.14
803.81	231.11
804.13	231.08
804.45	231.04
804.77	231.06
805.09	231.04
805.41	231.00
805.73	230.96
806.05	230.90
806.37	230.88
806.69	230.85
807.01	230.82
807.33	230.82
807.65	230.74
807.97	230.81
808.28	230.78
808.60	230.77
808.92	230.74
809.24	230.83
809.56	230.78
809.88	230.70
810.20	230.71
810.52	230.73
810.84	230.70
811.16	230.67
811.48	230.62
811.80	230.67
812.12	230.66
812.43	230.67
812.75	230.68
813.07	230.65
813.39	230.65
813.71	230.62
814.03	230.58
814.35	230.58
814.67	230.50
814.98	230.47
815.30	230.45
815.62	230.42
815.94	230.29
816.26	230.31
816.58	230.27
816.89	230.27
817.21	230.21
817.53	230.20
817.85	230.20
818.17	230.19
818.48	230.11
818.80	230.13
819.12	230.09
819.44	230.04
819.76	230.01
820.07	229.99
820.39	229.97
820.71	229.99
821.03	229.98
821.34	229.96
821.66	229.98
821.98	229.99
822.30	229.97
822.61	230.07
822.93	230.03
823.25	230.02
823.57	229.99
823.88	230.01
824.20	230.01
824.52	230.01
824.83	230.01
825.15	229.99
825.47	229.98
825.79	229.98
826.10	229.97
826.42	229.95
826.74	229.96
827.05	229.95
827.37	229.94
827.69	229.92
828.00	229.92
828.32	229.91
828.64	229.87
828.95	229.96
829.27	229.90
829.58	229.89
829.90	229.91
830.22	229.91
830.53	229.89
830.85	229.86
831.17	229.83
831.48	229.82
831.80	229.81
832.11	229.79
832.43	229.76
832.75	229.75
833.06	229.86
833.38	229.81
833.69	229.80
834.01	229.80
834.32	229.79
834.64	229.76
834.96	229.76
835.27	229.75
835.59	229.68
835.90	229.65
836.22	229.64
836.53	229.58
836.85	229.56
837.16	229.72
837.48	229.71
837.79	229.75
838.11	229.75
838.42	229.75
838.74	229.77
839.05	229.75
839.37	229.75
839.68	229.62
840.00	229.62
840.31	229.64
840.63	229.62
840.94	229.59
841.26	229.57
841.57	229.56
841.88	229.57
842.20	229.55
842.51	229.53
842.83	229.51
843.14	229.69
843.46	229.68
843.77	229.58
844.08	229.57
844.40	229.53
844.71	229.51
845.03	229.49
845.34	229.47
845.65	229.47
845.97	229.46
846.28	229.47
846.60	229.48
846.91	229.44
847.22	229.44
847.54	229.48
847.85	229.48
848.16	229.45
848.48	229.41
848.79	229.48
849.10	229.49
849.42	229.51
849.73	229.33
850.04	229.33
850.36	229.26
850.67	229.30
850.98	229.30
851.30	229.31
851.61	229.30
851.92	229.28
852.23	229.33
852.55	229.34
852.86	229.35
853.17	229.36
853.49	229.40
853.80	229.43
854.11	229.44
854.42	229.46
854.74	229.45
855.05	229.46
855.36	229.36
855.67	229.36
855.99	229.34
856.30	229.55
856.61	229.54
856.92	229.53
857.23	229.52
857.55	229.49
857.86	229.48
858.17	229.52
858.48	229.49
858.79	229.45
859.11	229.46
859.42	229.44
859.73	229.41
860.04	229.39
860.35	229.34
860.66	229.27
860.98	229.25
861.29	229.28
861.60	229.27
861.91	229.32
862.22	229.29
862.53	229.26
862.84	229.05
863.16	229.08
863.47	229.06
863.78	229.04
864.09	229.04
864.40	229.05
864.71	229.03
865.02	229.06
865.33	229.03
865.64	228.99
865.95	228.99
866.27	229.10
866.58	229.07
866.89	229.10
867.20	229.11
867.51	229.08
867.82	229.06
868.13	229.11
868.44	229.06
868.75	229.11
869.06	229.12
869.37	229.14
869.68	229.10
869.99	229.15
870.30	229.16
870.61	229.18
870.92	229.15
871.23	229.14
871.54	229.15
871.85	229.19
872.16	229.22
872.47	229.20
872.78	229.11
873.09	229.13
873.40	229.10
873.71	229.12
874.02	229.14
874.33	229.13
874.64	229.09
874.95	229.12
875.26	229.07
875.56	229.07
875.87	229.04
876.18	229.04
876.49	229.19
876.80	229.18
877.11	229.14
877.42	229.16
877.73	229.16
878.04	229.13
878.35	229.13
878.66	229.14
878.96	229.14
879.27	229.13
879.58	229.13
879.89	229.12
880.20	229.16
880.51	229.14
880.82	229.14
881.12	229.15
881.43	229.11
881.74	229.10
882.05	229.09
882.36	229.11
882.67	229.13
882.97	228.94
883.28	228.92
883.59	228.92
883.90	228.93
884.21	228.96
884.51	228.95
884.82	228.91
885.13	228.91
885.44	228.92
885.74	228.91
886.05	228.90
886.36	228.90
886.67	228.84
886.98	228.93
887.28	228.95
887.59	228.96
887.90	228.97
888.20	228.96
888.51	229.00
888.82	228.96
889.13	228.97
889.43	229.12
889.74	229.12
890.05	229.12
890.35	229.10
890.66	229.07
890.97	229.05
891.28	229.04
891.58	229.03
891.89	229.03
892.20	229.02
892.50	228.99
892.81	228.98
893.12	228.99
893.42	228.90
893.73	228.90
894.04	228.90
894.34	228.91
894.65	228.91
894.95	228.90
895.26	228.92
895.57	228.98
895.87	228.80
896.18	228.83
896.48	228.84
896.79	228.84
897.10	228.86
897.40	228.87
897.71	228.88
898.01	228.88
898.32	228.90
898.63	228.89
898.93	228.91
899.24	228.93
899.54	228.91
899.85	228.90
900.15	228.89
900.46	228.89
900.76	228.90
901.07	228.89
901.38	228.88
901.68	228.89
901.99	228.81
902.29	228.84
902.60	228.81
902.90	228.80
903.21	228.78
903.51	228.76
903.82	228.80
904.12	228.81
904.43	228.81
904.73	228.81
905.03	228.83
905.34	228.99
905.64	228.97
905.95	228.97
906.25	228.96
906.56	228.95
906.86	228.94
907.17	228.92
907.47	228.93
907.77	228.90
908.08	228.87
908.38	228.87
908.69	228.87
908.99	228.90
909.30	228.91
909.60	228.92
909.90	228.93
910.21	228.86
910.51	228.82
910.81	228.81
911.12	228.81
911.42	228.81
911.73	228.62
912.03	228.64
912.33	228.66
912.64	228.65
912.94	228.65
913.24	228.63
913.55	228.62
913.85	228.61
914.15	228.64
914.46	228.66
914.76	228.64
915.06	228.62
915.37	228.58
915.67	228.56
915.97	228.57
916.27	228.54
916.58	228.57
916.88	228.58
917.18	228.57
917.49	228.68
917.79	228.68
918.09	228.72
918.39	228.75
918.70	228.74
919.00	228.74
919.30	228.82
919.60	228.81
919.91	228.79
920.21	228.80
920.51	228.78
920.81	228.77
921.12	228.81
921.42	228.81
921.72	228.83
922.02	228.86
922.32	228.87
922.63	228.87
922.93	228.97
923.23	228.97
923.53	228.96
923.83	228.84
924.13	228.84
924.44	228.85
924.74	228.87
925.04	228.91
925.34	228.90
925.64	228.82
925.94	228.83
926.24	228.93
926.55	228.92
926.85	228.95
927.15	228.95
927.45	228.94
927.75	228.94
928.05	228.94
928.35	228.92
928.65	228.95
928.95	228.98
929.26	228.89
929.56	228.92
929.86	228.95
930.16	228.95
930.46	228.93
930.76	228.93
931.06	228.84
931.36	228.79
931.66	228.83
931.96	228.86
932.26	228.86
932.56	228.78
932.86	228.79
933.16	228.78
933.46	228.76
933.76	228.73
934.06	228.77
934.36	228.83
934.66	228.83
934.96	228.79
935.26	228.79
935.56	228.81
935.86	228.77
936.16	228.74
936.46	228.73
936.76	228.72
937.06	228.69
937.36	228.71
937.66	228.74
937.96	228.72
938.26	228.68
938.56	228.67
938.86	228.67
939.16	228.71
939.46	228.72
939.76	228.73
940.06	228.73
940.35	228.69
940.65	228.61
940.95	228.61
941.25	228.58
941.55	228.56
941.85	228.54
942.15	228.58
942.45	228.65
942.75	228.63
943.04	228.63
943.34	228.68
943.64	228.65
943.94	228.62
944.24	228.62
944.54	228.64
944.84	228.64
945.13	228.63
945.43	228.60
945.73	228.58
946.03	228.57
946.33	228.57
946.62	228.55
946.92	228.54
947.22	228.56
947.52	228.58
947.82	228.59
948.11	228.57
948.41	228.53
948.71	228.47
949.01	228.49
949.31	228.48
949.60	228.47
949.90	228.51
950.20	228.51
950.50	228.50
950.79	228.48
951.09	228.50
951.39	228.49
951.69	228.47
951.98	228.51
952.28	228.52
952.58	228.51
952.87	228.53
953.17	228.55
953.47	228.52
953.76	228.51
954.06	228.49
954.36	228.46
954.66	228.47
954.95	228.51
955.25	228.52
955.55	228.54
955.84	228.50
956.14	228.51
956.44	228.52
956.73	228.49
957.03	228.51
957.32	228.52
957.62	228.51
957.92	228.55
958.21	228.53
958.51	228.73
958.81	228.75
959.10	228.76
959.40	228.80
959.69	228.81
959.99	228.84
960.29	228.85
960.58	228.87
960.88	228.93
961.17	228.91
961.47	228.92
961.76	228.90
962.06	228.93
962.36	228.92
962.65	228.92
962.95	228.94
963.24	228.91
963.54	228.92
963.83	228.95
964.13	228.94
964.42	228.93
964.72	228.78
965.01	228.79
965.31	228.78
965.60	228.73
965.90	228.85
966.19	228.81
966.49	228.82
966.78	228.81
967.08	228.80
967.37	228.80
967.67	228.77
967.96	228.80
968.26	228.81
968.55	228.83
968.85	228.82
969.14	228.82
969.43	228.82
969.73	228.80
970.02	228.79
970.32	228.77
970.61	228.74
970.91	228.69
971.20	228.67
971.49	228.66
971.79	228.68
972.08	228.55
972.38	228.57
972.67	228.56
972.96	228.58
973.26	228.54
973.55	228.59
973.85	228.59
974.14	228.57
974.43	228.57
974.73	228.55
975.02	228.53
975.31	228.55
975.61	228.55
975.90	228.54
976.19	228.52
976.49	228.53
976.78	228.54
977.07	228.53
977.37	228.55
977.66	228.57
977.95	228.54
978.24	228.56
978.54	228.58
978.83	228.57
979.12	228.55
979.42	228.55
979.71	228.51
980.00	228.49
980.29	228.51
980.59	228.48
980.88	228.52
981.17	228.51
981.46	228.51
981.76	228.49
982.05	228.56
982.34	228.58
982.63	228.58
982.93	228.58
983.22	228.63
983.51	228.62
983.80	228.65
984.09	228.66
984.39	228.66
984.68	228.63
984.97	228.65
985.26	228.65
985.55	228.66
985.85	228.64
986.14	228.67
986.43	228.67
986.72	228.66
987.01	228.61
987.30	228.60
987.59	228.60
987.89	228.60
988.18	228.54
988.47	228.52
988.76	228.50
989.05	228.48
989.34	228.45
989.63	228.51
989.92	228.47
990.22	228.45
990.51	228.44
990.80	228.44
991.09	228.45
991.38	228.46
991.67	228.44
991.96	228.42
992.25	228.43
992.54	228.39
992.83	228.40
993.12	228.40
993.41	228.43
993.70	228.50
993.99	228.52
994.28	228.55
994.58	228.58
994.87	228.56
995.16	228.56
995.45	228.54
995.74	228.48
996.03	228.50
996.32	228.52
996.61	228.55
996.90	228.55
997.19	228.55
997.48	228.55
997.77	228.53
998.06	228.54
998.34	228.53
998.63	228.54
998.92	228.55
999.21	228.57
999.50	228.56
999.79	228.51
1000.08	228.50
1000.37	228.50
1000.66	228.48
1000.95	228.52
1001.24	228.53
1001.53	228.55
1001.82	228.56
1002.11	228.52
1002.40	228.53
1002.68	228.57
1002.97	228.68
1003.26	228.66
1003.55	228.63
1003.84	228.65
1004.13	228.71
1004.42	228.70
1004.71	228.69
1004.99	228.68
1005.28	228.72
1005.57	228.72
1005.86	228.69
1006.15	228.68
1006.44	228.66
1006.72	228.68
1007.01	228.65
1007.30	228.64
1007.59	228.62
1007.88	228.62
1008.17	228.63
1008.45	228.59
1008.74	228.52
1009.03	228.43
1009.32	228.43
1009.60	228.43
1009.89	228.43
1010.18	228.35
1010.47	228.34
1010.76	228.33
1011.04	228.33
1011.33	228.33
1011.62	228.34
1011.91	228.36
1012.19	228.36
1012.48	228.36
1012.77	228.36
1013.05	228.43
1013.34	228.45
1013.63	228.44
1013.92	228.45
1014.20	228.45
1014.49	228.47
1014.78	228.49
1015.06	228.44
1015.35	228.45
1015.64	228.47
1015.92	228.49
1016.21	228.50
1016.50	228.51
1016.78	228.54
1017.07	228.56
1017.36	228.52
1017.64	228.49
1017.93	228.51
1018.22	228.51
1018.50	228.51
1018.79	228.49
1019.08	228.44
1019.36	228.45
1019.65	228.43
1019.93	228.47
1020.22	228.50
1020.51	228.58
1020.79	228.55
1021.08	228.29
1021.36	228.30
1021.65	228.41
1021.94	228.52
1022.22	228.77
1022.51	227.97
1022.79	229.26
1023.08	228.74
1023.36	230.47
1023.65	228.04
>>>>>End Processed Spectral Data<<<<<
