SpectraSuite Data File
++++++++++++++++++++++++++++++++++++
Date: Tue Oct 06 16:03:51 EDT 2015
User: lab3
Dark Spectrum Present: No
Reference Spectrum Present: No
Number of Sampled Component Spectra: 1
Spectrometers: USB2E7196
Integration Time (usec): 66000 (USB2E7196)
Spectra Averaged: 1000 (USB2E7196)
Boxcar Smoothing: 10 (USB2E7196)
Correct for Electrical Dark: No (USB2E7196)
Strobe/Lamp Enabled: No (USB2E7196)
Correct for Detector Non-linearity: No (USB2E7196)
Correct for Stray Light: No (USB2E7196)
Number of Pixels in Processed Spectrum: 2048
>>>>>Begin Processed Spectral Data<<<<<
339.09	0.00
339.48	216.13
339.86	217.58
340.24	218.86
340.63	220.41
341.01	224.11
341.39	223.05
341.78	224.52
342.16	225.78
342.54	226.12
342.93	214.54
343.31	225.37
343.69	225.91
344.07	226.38
344.46	226.82
344.84	227.23
345.22	227.44
345.60	227.72
345.99	227.93
346.37	228.07
346.75	228.20
347.13	228.28
347.52	228.38
347.90	228.49
348.28	228.55
348.66	228.62
349.05	228.60
349.43	228.68
349.81	228.75
350.19	228.82
350.57	228.89
350.96	228.99
351.34	229.10
351.72	229.21
352.10	229.33
352.48	229.40
352.87	229.44
353.25	229.52
353.63	229.57
354.01	229.63
354.39	229.71
354.77	229.78
355.15	229.90
355.54	229.93
355.92	229.95
356.30	230.02
356.68	230.21
357.06	230.28
357.44	230.32
357.82	230.39
358.20	230.59
358.58	230.65
358.97	230.70
359.35	230.79
359.73	230.88
360.11	230.92
360.49	230.98
360.87	231.03
361.25	231.10
361.63	231.20
362.01	231.26
362.39	231.29
362.77	231.34
363.15	231.36
363.53	231.39
363.91	231.43
364.29	231.47
364.67	231.31
365.05	231.34
365.43	231.38
365.81	231.40
366.19	231.36
366.57	231.44
366.95	231.45
367.33	231.40
367.71	231.39
368.09	231.43
368.47	231.43
368.85	231.41
369.23	231.43
369.61	231.36
369.99	231.39
370.37	231.39
370.75	231.50
371.13	231.48
371.51	231.43
371.89	231.41
372.27	231.39
372.65	231.36
373.03	231.33
373.41	231.27
373.78	231.23
374.16	231.10
374.54	231.00
374.92	230.94
375.30	230.91
375.68	230.84
376.06	230.79
376.44	230.72
376.82	230.69
377.19	230.63
377.57	230.58
377.95	230.47
378.33	230.41
378.71	230.20
379.09	230.16
379.47	230.14
379.84	230.07
380.22	230.00
380.60	229.94
380.98	229.89
381.36	229.83
381.73	229.78
382.11	229.77
382.49	229.73
382.87	229.68
383.25	229.64
383.62	229.81
384.00	229.73
384.38	229.70
384.76	229.70
385.13	229.72
385.51	229.68
385.89	229.62
386.27	229.59
386.64	229.59
387.02	229.54
387.40	229.49
387.78	229.48
388.15	229.46
388.53	229.44
388.91	229.42
389.29	229.40
389.66	229.41
390.04	229.36
390.42	229.39
390.79	229.38
391.17	229.36
391.55	229.16
391.92	229.16
392.30	229.18
392.68	229.15
393.05	229.14
393.43	229.16
393.81	229.19
394.18	229.16
394.56	229.17
394.94	229.22
395.31	229.23
395.69	229.30
396.06	229.35
396.44	229.39
396.82	229.41
397.19	229.55
397.57	229.56
397.95	229.63
398.32	229.61
398.70	229.70
399.07	229.80
399.45	229.86
399.82	229.93
400.20	229.98
400.58	230.07
400.95	230.09
401.33	230.22
401.70	230.45
402.08	230.60
402.45	230.75
402.83	230.92
403.20	231.10
403.58	231.23
403.95	231.44
404.33	231.67
404.71	231.88
405.08	232.17
405.46	232.43
405.83	232.70
406.21	233.00
406.58	233.34
406.96	233.66
407.33	234.04
407.70	234.47
408.08	235.04
408.45	235.55
408.83	236.11
409.20	236.60
409.58	237.06
409.95	237.70
410.33	238.37
410.70	239.03
411.08	239.78
411.45	240.59
411.82	241.41
412.20	242.35
412.57	243.46
412.95	244.35
413.32	245.50
413.69	246.69
414.07	247.95
414.44	249.30
414.82	250.70
415.19	252.34
415.56	254.02
415.94	255.76
416.31	257.72
416.68	259.66
417.06	261.93
417.43	264.05
417.81	266.50
418.18	269.00
418.55	271.71
418.93	274.55
419.30	277.51
419.67	280.65
420.04	283.88
420.42	287.26
420.79	291.15
421.16	295.10
421.54	299.08
421.91	303.27
422.28	307.61
422.66	312.28
423.03	316.73
423.40	321.38
423.77	326.37
424.15	331.46
424.52	336.75
424.89	342.46
425.26	348.15
425.64	353.40
426.01	359.31
426.38	365.36
426.75	371.56
427.13	377.94
427.50	384.63
427.87	391.54
428.24	398.51
428.61	405.19
428.99	412.38
429.36	420.28
429.73	427.81
430.10	435.31
430.47	442.99
430.85	450.94
431.22	459.40
431.59	468.09
431.96	476.58
432.33	485.98
432.70	494.96
433.08	505.58
433.45	515.58
433.82	525.43
434.19	536.49
434.56	547.40
434.93	557.94
435.30	568.40
435.68	580.27
436.05	591.89
436.42	603.51
436.79	614.13
437.16	625.68
437.53	638.01
437.90	650.37
438.27	662.49
438.64	675.57
439.01	687.47
439.38	698.38
439.75	708.96
440.13	721.00
440.50	732.44
440.87	741.60
441.24	751.67
441.61	762.72
441.98	770.86
442.35	780.55
442.72	790.43
443.09	799.80
443.46	805.97
443.83	810.66
444.20	814.57
444.57	820.21
444.94	823.57
445.31	827.06
445.68	830.06
446.05	832.36
446.42	832.14
446.79	831.67
447.16	831.31
447.53	831.00
447.90	827.56
448.27	824.23
448.64	818.95
449.01	815.34
449.37	807.80
449.74	800.96
450.11	792.07
450.48	782.30
450.85	772.53
451.22	764.08
451.59	755.75
451.96	748.22
452.33	737.28
452.70	727.59
453.07	715.78
453.43	704.02
453.80	692.53
454.17	681.54
454.54	671.39
454.91	659.93
455.28	649.09
455.65	638.88
456.02	628.07
456.38	619.39
456.75	608.25
457.12	599.26
457.49	590.19
457.86	581.60
458.23	574.01
458.59	565.66
458.96	557.09
459.33	549.58
459.70	541.93
460.07	536.11
460.43	529.19
460.80	522.76
461.17	517.18
461.54	511.14
461.91	505.47
462.27	499.68
462.64	494.94
463.01	489.55
463.38	484.08
463.74	479.19
464.11	474.83
464.48	470.89
464.85	466.63
465.21	463.38
465.58	459.78
465.95	455.69
466.32	452.44
466.68	449.24
467.05	446.03
467.42	442.88
467.78	439.52
468.15	436.43
468.52	434.18
468.88	431.16
469.25	428.40
469.62	426.20
469.98	423.85
470.35	421.73
470.72	419.82
471.08	417.90
471.45	416.26
471.82	414.46
472.18	412.57
472.55	411.34
472.92	409.80
473.28	408.61
473.65	407.33
474.02	406.08
474.38	405.07
474.75	404.45
475.11	403.62
475.48	403.22
475.85	402.78
476.21	402.52
476.58	402.35
476.94	402.55
477.31	402.62
477.67	402.72
478.04	403.04
478.41	403.48
478.77	404.08
479.14	404.48
479.50	405.25
479.87	406.26
480.23	407.22
480.60	408.17
480.96	409.13
481.33	410.56
481.69	412.00
482.06	413.40
482.42	414.69
482.79	416.32
483.15	418.21
483.52	420.35
483.88	422.37
484.25	424.52
484.61	426.77
484.98	429.20
485.34	431.92
485.71	434.80
486.07	437.86
486.44	440.87
486.80	444.28
487.17	447.77
487.53	451.52
487.90	455.50
488.26	459.82
488.62	464.32
488.99	468.84
489.35	473.57
489.72	478.66
490.08	484.03
490.44	489.51
490.81	495.24
491.17	501.13
491.54	507.41
491.90	513.89
492.26	520.76
492.63	527.96
492.99	535.47
493.36	543.12
493.72	551.17
494.08	559.43
494.45	568.05
494.81	577.06
495.17	586.37
495.54	596.13
495.90	606.32
496.26	616.71
496.63	627.38
496.99	638.47
497.35	650.04
497.72	661.87
498.08	674.03
498.44	686.48
498.80	699.68
499.17	713.14
499.53	727.04
499.89	741.39
500.26	755.91
500.62	770.79
500.98	786.46
501.34	802.18
501.71	818.69
502.07	835.50
502.43	852.74
502.79	870.15
503.16	888.09
503.52	906.20
503.88	924.75
504.24	943.71
504.60	962.89
504.97	982.71
505.33	1003.00
505.69	1024.31
506.05	1045.76
506.41	1066.98
506.78	1088.44
507.14	1110.50
507.50	1132.91
507.86	1155.75
508.22	1178.73
508.59	1201.58
508.95	1225.50
509.31	1249.82
509.67	1274.75
510.03	1299.55
510.39	1324.34
510.75	1349.16
511.12	1374.37
511.48	1399.58
511.84	1424.85
512.20	1450.44
512.56	1476.89
512.92	1503.13
513.28	1528.82
513.64	1554.87
514.00	1581.28
514.37	1607.91
514.73	1634.47
515.09	1660.37
515.45	1686.58
515.81	1712.82
516.17	1738.72
516.53	1764.00
516.89	1789.26
517.25	1814.70
517.61	1839.94
517.97	1865.71
518.33	1890.84
518.69	1915.76
519.05	1941.16
519.41	1966.60
519.77	1991.94
520.13	2015.91
520.49	2040.01
520.85	2064.37
521.21	2088.10
521.57	2112.14
521.93	2135.15
522.29	2158.72
522.65	2182.13
523.01	2205.22
523.37	2227.63
523.73	2250.83
524.09	2273.68
524.45	2295.96
524.81	2317.60
525.17	2338.98
525.53	2359.75
525.89	2380.81
526.25	2401.47
526.61	2420.63
526.97	2439.76
527.33	2458.71
527.68	2477.27
528.04	2495.44
528.40	2512.17
528.76	2529.30
529.12	2546.00
529.48	2563.09
529.84	2577.53
530.20	2592.43
530.56	2606.34
530.91	2620.58
531.27	2634.18
531.63	2646.76
531.99	2659.18
532.35	2671.11
532.71	2682.70
533.07	2694.49
533.42	2704.47
533.78	2714.87
534.14	2726.01
534.50	2735.98
534.86	2746.45
535.21	2754.97
535.57	2763.26
535.93	2771.55
536.29	2778.06
536.65	2784.25
537.00	2789.01
537.36	2795.23
537.72	2800.24
538.08	2804.81
538.44	2808.41
538.79	2811.66
539.15	2813.62
539.51	2814.93
539.87	2815.19
540.22	2813.90
540.58	2812.88
540.94	2812.86
541.29	2811.36
541.65	2808.61
542.01	2805.52
542.37	2800.99
542.72	2797.92
543.08	2793.29
543.44	2788.82
543.79	2783.74
544.15	2778.11
544.51	2772.86
544.87	2766.35
545.22	2759.18
545.58	2751.92
545.94	2744.75
546.29	2736.08
546.65	2727.77
547.01	2719.47
547.36	2711.52
547.72	2703.86
548.07	2694.42
548.43	2683.96
548.79	2673.35
549.14	2663.12
549.50	2653.06
549.86	2642.04
550.21	2629.46
550.57	2617.88
550.92	2604.66
551.28	2592.16
551.64	2579.75
551.99	2566.98
552.35	2553.86
552.70	2540.67
553.06	2527.90
553.41	2514.66
553.77	2501.29
554.13	2487.97
554.48	2473.70
554.84	2458.89
555.19	2444.50
555.55	2430.02
555.90	2415.82
556.26	2402.04
556.61	2387.15
556.97	2371.29
557.32	2355.92
557.68	2340.96
558.03	2325.72
558.39	2311.40
558.74	2297.52
559.10	2281.96
559.45	2266.82
559.81	2252.40
560.16	2237.58
560.52	2222.66
560.87	2207.81
561.23	2192.67
561.58	2177.92
561.94	2162.80
562.29	2147.17
562.64	2131.72
563.00	2116.50
563.35	2101.43
563.71	2085.94
564.06	2070.68
564.42	2056.00
564.77	2041.24
565.12	2026.31
565.48	2011.29
565.83	1996.51
566.19	1981.74
566.54	1967.29
566.89	1952.21
567.25	1936.87
567.60	1922.46
567.96	1907.16
568.31	1890.94
568.66	1875.70
569.02	1861.01
569.37	1846.76
569.72	1833.15
570.08	1819.09
570.43	1804.49
570.78	1789.80
571.14	1774.89
571.49	1760.04
571.84	1745.54
572.20	1730.07
572.55	1715.34
572.90	1700.56
573.26	1685.71
573.61	1670.34
573.96	1655.47
574.31	1640.44
574.67	1625.49
575.02	1610.14
575.37	1594.96
575.72	1580.39
576.08	1565.63
576.43	1550.31
576.78	1535.12
577.13	1520.13
577.49	1505.38
577.84	1491.07
578.19	1476.25
578.54	1461.57
578.90	1446.92
579.25	1432.12
579.60	1418.38
579.95	1404.38
580.30	1390.38
580.66	1376.16
581.01	1361.98
581.36	1348.02
581.71	1334.72
582.06	1321.35
582.42	1307.89
582.77	1294.93
583.12	1282.17
583.47	1269.29
583.82	1256.62
584.17	1243.65
584.53	1230.71
584.88	1218.00
585.23	1205.17
585.58	1192.74
585.93	1180.35
586.28	1168.79
586.63	1157.05
586.98	1145.01
587.34	1133.29
587.69	1121.45
588.04	1110.04
588.39	1098.83
588.74	1087.20
589.09	1075.80
589.44	1064.15
589.79	1053.01
590.14	1041.92
590.49	1030.92
590.84	1020.14
591.19	1009.62
591.54	999.19
591.89	988.38
592.25	977.96
592.60	967.40
592.95	957.03
593.30	946.88
593.65	936.51
594.00	926.44
594.35	917.21
594.70	907.34
595.05	898.07
595.40	888.54
595.75	878.90
596.10	869.86
596.45	860.82
596.80	852.09
597.15	843.39
597.50	834.70
597.85	826.18
598.19	817.69
598.54	809.23
598.89	801.21
599.24	793.55
599.59	785.78
599.94	778.58
600.29	771.36
600.64	764.01
600.99	756.55
601.34	749.31
601.69	741.62
602.04	734.74
602.39	727.72
602.74	720.89
603.08	714.24
603.43	707.55
603.78	700.82
604.13	694.20
604.48	687.65
604.83	681.29
605.18	675.05
605.53	668.93
605.87	662.74
606.22	656.65
606.57	650.56
606.92	644.31
607.27	638.14
607.62	632.18
607.96	626.47
608.31	621.14
608.66	615.76
609.01	610.59
609.36	605.42
609.70	600.19
610.05	595.01
610.40	589.97
610.75	584.93
611.10	580.10
611.44	575.28
611.79	570.54
612.14	565.73
612.49	561.00
612.83	556.50
613.18	552.04
613.53	547.61
613.88	543.31
614.22	539.35
614.57	535.27
614.92	531.28
615.27	527.39
615.61	523.45
615.96	519.52
616.31	515.62
616.65	511.83
617.00	508.16
617.35	504.53
617.70	500.92
618.04	497.40
618.39	493.99
618.74	490.78
619.08	487.57
619.43	484.43
619.78	481.23
620.12	478.08
620.47	475.15
620.82	472.23
621.16	469.31
621.51	466.45
621.85	463.61
622.20	460.86
622.55	458.05
622.89	455.30
623.24	452.71
623.59	450.15
623.93	447.70
624.28	445.36
624.62	443.22
624.97	441.05
625.32	438.82
625.66	436.53
626.01	434.26
626.35	432.07
626.70	429.85
627.04	427.79
627.39	425.70
627.73	423.66
628.08	421.72
628.43	419.79
628.77	417.76
629.12	415.88
629.46	414.05
629.81	412.37
630.15	410.60
630.50	408.85
630.84	407.12
631.19	405.45
631.53	403.84
631.88	402.05
632.22	400.38
632.57	398.97
632.91	397.53
633.26	396.12
633.60	394.75
633.95	393.47
634.29	392.07
634.64	390.73
634.98	389.24
635.32	387.93
635.67	386.72
636.01	385.54
636.36	384.36
636.70	383.32
637.05	382.07
637.39	380.99
637.73	379.88
638.08	378.85
638.42	377.85
638.77	376.71
639.11	375.57
639.45	374.44
639.80	373.25
640.14	372.15
640.49	371.06
640.83	369.94
641.17	368.85
641.52	367.80
641.86	366.77
642.20	365.94
642.55	364.89
642.89	363.86
643.23	362.91
643.58	362.06
643.92	361.02
644.26	360.10
644.61	359.20
644.95	358.27
645.29	357.27
645.64	356.25
645.98	355.33
646.32	354.53
646.66	353.68
647.01	352.85
647.35	352.09
647.69	351.31
648.04	350.61
648.38	349.85
648.72	349.12
649.06	348.37
649.41	347.53
649.75	346.78
650.09	346.07
650.43	345.32
650.78	344.55
651.12	343.83
651.46	343.10
651.80	342.40
652.14	341.74
652.49	341.14
652.83	340.49
653.17	339.78
653.51	339.11
653.85	338.54
654.20	337.92
654.54	337.19
654.88	336.48
655.22	335.84
655.56	335.16
655.90	334.51
656.25	333.89
656.59	333.29
656.93	332.72
657.27	332.20
657.61	331.58
657.95	331.03
658.29	330.45
658.64	329.91
658.98	329.29
659.32	328.70
659.66	328.14
660.00	327.61
660.34	327.10
660.68	326.53
661.02	325.88
661.36	325.30
661.70	324.75
662.05	324.23
662.39	323.69
662.73	323.23
663.07	322.80
663.41	322.32
663.75	321.81
664.09	321.29
664.43	320.65
664.77	320.14
665.11	319.56
665.45	319.03
665.79	318.52
666.13	318.00
666.47	317.45
666.81	316.88
667.15	316.27
667.49	315.81
667.83	315.38
668.17	314.94
668.51	314.52
668.85	314.12
669.19	313.73
669.53	313.20
669.87	312.65
670.21	312.11
670.55	311.61
670.89	311.21
671.23	310.77
671.57	310.39
671.91	310.01
672.25	309.67
672.58	309.35
672.92	308.92
673.26	308.57
673.60	308.20
673.94	307.83
674.28	307.49
674.62	307.10
674.96	306.65
675.30	306.24
675.64	305.77
675.97	305.30
676.31	304.83
676.65	304.40
676.99	304.08
677.33	303.64
677.67	303.25
678.01	302.75
678.34	302.33
678.68	301.94
679.02	301.49
679.36	301.04
679.70	300.57
680.04	300.16
680.37	299.76
680.71	299.37
681.05	299.00
681.39	298.57
681.73	298.11
682.06	297.68
682.40	297.29
682.74	296.94
683.08	296.64
683.42	296.26
683.75	295.92
684.09	295.45
684.43	295.06
684.77	294.63
685.10	294.25
685.44	293.86
685.78	293.43
686.12	293.03
686.45	292.62
686.79	292.18
687.13	291.77
687.46	291.31
687.80	290.89
688.14	290.42
688.48	290.01
688.81	289.59
689.15	289.25
689.49	288.83
689.82	288.39
690.16	287.84
690.50	287.37
690.83	286.93
691.17	286.48
691.51	286.06
691.84	285.67
692.18	285.25
692.52	284.78
692.85	284.35
693.19	283.98
693.52	283.56
693.86	283.13
694.20	282.71
694.53	282.31
694.87	281.85
695.21	281.42
695.54	280.99
695.88	280.55
696.21	280.06
696.55	279.62
696.88	279.19
697.22	278.79
697.56	278.41
697.89	277.95
698.23	277.57
698.56	277.14
698.90	276.74
699.23	276.29
699.57	275.91
699.90	275.51
700.24	275.07
700.58	274.69
700.91	274.34
701.25	274.10
701.58	273.79
701.92	273.48
702.25	273.12
702.59	272.74
702.92	272.36
703.26	271.97
703.59	271.60
703.93	271.37
704.26	271.01
704.60	270.64
704.93	270.27
705.26	269.89
705.60	269.56
705.93	269.15
706.27	268.86
706.60	268.55
706.94	268.25
707.27	267.85
707.61	267.50
707.94	267.10
708.27	266.58
708.61	266.14
708.94	265.74
709.28	265.38
709.61	265.02
709.94	264.69
710.28	264.37
710.61	264.07
710.95	263.57
711.28	263.36
711.61	263.01
711.95	262.73
712.28	262.39
712.61	262.03
712.95	261.79
713.28	261.53
713.61	261.17
713.95	260.80
714.28	260.50
714.61	260.17
714.95	259.87
715.28	259.57
715.61	259.29
715.95	259.02
716.28	258.73
716.61	258.48
716.95	258.16
717.28	257.89
717.61	257.58
717.94	257.32
718.28	256.92
718.61	256.64
718.94	256.35
719.27	256.08
719.61	255.85
719.94	255.55
720.27	255.21
720.60	254.95
720.94	254.69
721.27	254.46
721.60	254.23
721.93	253.97
722.27	253.78
722.60	253.54
722.93	253.27
723.26	253.03
723.59	252.77
723.93	252.56
724.26	252.33
724.59	252.09
724.92	251.88
725.25	251.71
725.59	251.50
725.92	251.29
726.25	251.08
726.58	250.87
726.91	250.63
727.24	250.43
727.57	250.21
727.91	249.98
728.24	249.78
728.57	249.56
728.90	249.37
729.23	249.11
729.56	249.00
729.89	248.79
730.22	248.59
730.55	248.39
730.89	248.19
731.22	247.99
731.55	247.81
731.88	247.63
732.21	247.42
732.54	247.23
732.87	247.05
733.20	246.88
733.53	246.70
733.86	246.55
734.19	246.36
734.52	246.23
734.85	246.18
735.18	246.00
735.51	245.89
735.84	245.75
736.17	245.64
736.50	245.38
736.83	245.44
737.16	245.29
737.49	245.13
737.82	244.96
738.15	244.83
738.48	244.68
738.81	244.50
739.14	244.32
739.47	244.16
739.80	244.00
740.13	243.86
740.46	243.69
740.79	243.51
741.12	243.36
741.45	243.17
741.78	242.93
742.11	242.82
742.44	242.61
742.77	242.47
743.10	242.29
743.43	242.15
743.75	241.82
744.08	241.94
744.41	241.79
744.74	241.66
745.07	241.48
745.40	241.38
745.73	241.32
746.06	241.21
746.39	241.09
746.71	240.95
747.04	240.80
747.37	240.67
747.70	240.57
748.03	240.45
748.36	240.37
748.68	240.26
749.01	240.10
749.34	239.99
749.67	239.86
750.00	239.78
750.33	239.80
750.65	239.69
750.98	239.33
751.31	239.23
751.64	239.13
751.97	239.13
752.29	239.00
752.62	238.80
752.95	238.68
753.28	238.55
753.60	238.44
753.93	238.38
754.26	238.29
754.59	238.14
754.91	238.01
755.24	237.88
755.57	237.77
755.90	237.66
756.22	237.55
756.55	237.42
756.88	237.27
757.20	237.05
757.53	236.91
757.86	236.81
758.19	236.73
758.51	236.62
758.84	236.44
759.17	236.33
759.49	236.26
759.82	236.26
760.15	236.20
760.47	236.11
760.80	235.97
761.13	235.91
761.45	235.82
761.78	235.76
762.11	235.68
762.43	235.58
762.76	235.50
763.08	235.44
763.41	235.38
763.74	235.32
764.06	235.25
764.39	235.19
764.71	235.11
765.04	235.02
765.37	234.93
765.69	234.86
766.02	234.80
766.34	234.71
766.67	234.57
767.00	234.53
767.32	234.56
767.65	234.61
767.97	234.52
768.30	234.46
768.62	234.38
768.95	234.30
769.27	234.25
769.60	234.22
769.92	234.14
770.25	234.05
770.57	233.95
770.90	233.89
771.22	233.81
771.55	233.75
771.87	233.70
772.20	233.65
772.52	233.74
772.85	233.89
773.17	233.84
773.50	233.78
773.82	233.70
774.15	233.56
774.47	233.39
774.80	233.34
775.12	233.28
775.45	233.24
775.77	233.20
776.09	233.16
776.42	233.12
776.74	233.11
777.07	233.05
777.39	233.03
777.72	232.95
778.04	232.94
778.36	232.88
778.69	232.85
779.01	232.83
779.33	232.64
779.66	232.40
779.98	232.35
780.31	232.32
780.63	232.35
780.95	232.35
781.28	232.31
781.60	232.27
781.92	232.22
782.25	232.19
782.57	232.14
782.89	232.10
783.22	232.05
783.54	232.00
783.86	231.99
784.19	231.95
784.51	231.99
784.83	231.94
785.16	231.90
785.48	231.88
785.80	231.84
786.12	231.82
786.45	231.79
786.77	231.77
787.09	231.74
787.42	231.63
787.74	231.61
788.06	231.59
788.38	231.55
788.71	231.52
789.03	231.50
789.35	231.48
789.67	231.43
789.99	231.41
790.32	231.36
790.64	231.35
790.96	231.48
791.28	231.38
791.61	231.35
791.93	231.33
792.25	231.30
792.57	231.39
792.89	231.34
793.21	231.32
793.54	231.28
793.86	231.24
794.18	231.23
794.50	231.17
794.82	231.15
795.14	231.16
795.47	231.17
795.79	231.14
796.11	231.09
796.43	231.07
796.75	231.05
797.07	231.04
797.39	231.01
797.71	230.84
798.04	230.83
798.36	230.82
798.68	230.79
799.00	230.78
799.32	230.67
799.64	230.67
799.96	230.66
800.28	230.67
800.60	230.64
800.92	230.63
801.24	230.60
801.56	230.60
801.89	230.56
802.21	230.54
802.53	230.51
802.85	230.53
803.17	230.60
803.49	230.54
803.81	230.50
804.13	230.48
804.45	230.43
804.77	230.43
805.09	230.42
805.41	230.39
805.73	230.33
806.05	230.27
806.37	230.24
806.69	230.21
807.01	230.17
807.33	230.17
807.65	230.10
807.97	230.15
808.28	230.11
808.60	230.10
808.92	230.05
809.24	230.14
809.56	230.09
809.88	230.01
810.20	230.01
810.52	230.03
810.84	230.00
811.16	229.98
811.48	229.95
811.80	230.01
812.12	230.01
812.43	230.04
812.75	230.04
813.07	230.01
813.39	230.00
813.71	229.97
814.03	229.94
814.35	229.94
814.67	229.86
814.98	229.83
815.30	229.82
815.62	229.78
815.94	229.65
816.26	229.66
816.58	229.61
816.89	229.61
817.21	229.56
817.53	229.56
817.85	229.56
818.17	229.54
818.48	229.46
818.80	229.47
819.12	229.43
819.44	229.40
819.76	229.36
820.07	229.35
820.39	229.34
820.71	229.35
821.03	229.34
821.34	229.31
821.66	229.32
821.98	229.32
822.30	229.32
822.61	229.42
822.93	229.39
823.25	229.38
823.57	229.35
823.88	229.36
824.20	229.34
824.52	229.37
824.83	229.35
825.15	229.33
825.47	229.31
825.79	229.32
826.10	229.30
826.42	229.31
826.74	229.30
827.05	229.29
827.37	229.27
827.69	229.25
828.00	229.25
828.32	229.25
828.64	229.22
828.95	229.30
829.27	229.24
829.58	229.24
829.90	229.26
830.22	229.27
830.53	229.23
830.85	229.20
831.17	229.14
831.48	229.14
831.80	229.13
832.11	229.12
832.43	229.09
832.75	229.08
833.06	229.19
833.38	229.15
833.69	229.13
834.01	229.13
834.32	229.12
834.64	229.11
834.96	229.11
835.27	229.11
835.59	229.05
835.90	229.03
836.22	229.01
836.53	228.98
836.85	228.96
837.16	229.14
837.48	229.15
837.79	229.20
838.11	229.20
838.42	229.19
838.74	229.21
839.05	229.19
839.37	229.18
839.68	229.06
840.00	229.06
840.31	229.08
840.63	229.06
840.94	229.04
841.26	229.02
841.57	229.01
841.88	229.01
842.20	228.98
842.51	228.95
842.83	228.94
843.14	229.09
843.46	229.08
843.77	228.97
844.08	228.96
844.40	228.90
844.71	228.87
845.03	228.86
845.34	228.84
845.65	228.83
845.97	228.83
846.28	228.84
846.60	228.85
846.91	228.81
847.22	228.80
847.54	228.84
847.85	228.84
848.16	228.82
848.48	228.77
848.79	228.83
849.10	228.85
849.42	228.85
849.73	228.69
850.04	228.68
850.36	228.62
850.67	228.66
850.98	228.66
851.30	228.68
851.61	228.67
851.92	228.68
852.23	228.73
852.55	228.74
852.86	228.73
853.17	228.74
853.49	228.78
853.80	228.82
854.11	228.82
854.42	228.84
854.74	228.83
855.05	228.85
855.36	228.76
855.67	228.74
855.99	228.74
856.30	228.94
856.61	228.93
856.92	228.92
857.23	228.91
857.55	228.90
857.86	228.88
858.17	228.91
858.48	228.88
858.79	228.83
859.11	228.84
859.42	228.82
859.73	228.79
860.04	228.78
860.35	228.71
860.66	228.66
860.98	228.66
861.29	228.67
861.60	228.65
861.91	228.69
862.22	228.67
862.53	228.65
862.84	228.43
863.16	228.47
863.47	228.45
863.78	228.42
864.09	228.42
864.40	228.44
864.71	228.43
865.02	228.45
865.33	228.43
865.64	228.40
865.95	228.40
866.27	228.51
866.58	228.49
866.89	228.51
867.20	228.52
867.51	228.48
867.82	228.47
868.13	228.53
868.44	228.50
868.75	228.53
869.06	228.54
869.37	228.56
869.68	228.52
869.99	228.54
870.30	228.56
870.61	228.59
870.92	228.56
871.23	228.54
871.54	228.56
871.85	228.59
872.16	228.62
872.47	228.61
872.78	228.51
873.09	228.53
873.40	228.51
873.71	228.52
874.02	228.52
874.33	228.51
874.64	228.46
874.95	228.49
875.26	228.45
875.56	228.44
875.87	228.43
876.18	228.42
876.49	228.60
876.80	228.57
877.11	228.54
877.42	228.55
877.73	228.55
878.04	228.52
878.35	228.53
878.66	228.52
878.96	228.52
879.27	228.51
879.58	228.50
879.89	228.50
880.20	228.54
880.51	228.54
880.82	228.55
881.12	228.56
881.43	228.53
881.74	228.51
882.05	228.50
882.36	228.51
882.67	228.53
882.97	228.33
883.28	228.33
883.59	228.31
883.90	228.34
884.21	228.36
884.51	228.35
884.82	228.33
885.13	228.32
885.44	228.31
885.74	228.31
886.05	228.31
886.36	228.31
886.67	228.25
886.98	228.34
887.28	228.35
887.59	228.35
887.90	228.35
888.20	228.36
888.51	228.40
888.82	228.37
889.13	228.37
889.43	228.53
889.74	228.52
890.05	228.52
890.35	228.49
890.66	228.46
890.97	228.45
891.28	228.43
891.58	228.44
891.89	228.45
892.20	228.44
892.50	228.42
892.81	228.40
893.12	228.40
893.42	228.32
893.73	228.32
894.04	228.32
894.34	228.34
894.65	228.33
894.95	228.31
895.26	228.32
895.57	228.39
895.87	228.21
896.18	228.24
896.48	228.25
896.79	228.25
897.10	228.28
897.40	228.29
897.71	228.32
898.01	228.30
898.32	228.31
898.63	228.31
898.93	228.32
899.24	228.34
899.54	228.32
899.85	228.31
900.15	228.30
900.46	228.28
900.76	228.29
901.07	228.29
901.38	228.28
901.68	228.30
901.99	228.21
902.29	228.23
902.60	228.21
902.90	228.20
903.21	228.20
903.51	228.18
903.82	228.22
904.12	228.22
904.43	228.23
904.73	228.22
905.03	228.23
905.34	228.40
905.64	228.38
905.95	228.39
906.25	228.39
906.56	228.38
906.86	228.40
907.17	228.38
907.47	228.39
907.77	228.38
908.08	228.34
908.38	228.36
908.69	228.37
908.99	228.40
909.30	228.41
909.60	228.40
909.90	228.39
910.21	228.34
910.51	228.30
910.81	228.29
911.12	228.30
911.42	228.30
911.73	228.12
912.03	228.14
912.33	228.18
912.64	228.17
912.94	228.15
913.24	228.12
913.55	228.10
913.85	228.09
914.15	228.13
914.46	228.14
914.76	228.12
915.06	228.11
915.37	228.07
915.67	228.06
915.97	228.06
916.27	228.04
916.58	228.04
916.88	228.05
917.18	228.03
917.49	228.14
917.79	228.12
918.09	228.13
918.39	228.17
918.70	228.15
919.00	228.15
919.30	228.23
919.60	228.22
919.91	228.21
920.21	228.21
920.51	228.17
920.81	228.16
921.12	228.19
921.42	228.18
921.72	228.20
922.02	228.22
922.32	228.25
922.63	228.26
922.93	228.37
923.23	228.38
923.53	228.36
923.83	228.25
924.13	228.27
924.44	228.27
924.74	228.30
925.04	228.33
925.34	228.32
925.64	228.24
925.94	228.26
926.24	228.36
926.55	228.35
926.85	228.38
927.15	228.38
927.45	228.37
927.75	228.37
928.05	228.36
928.35	228.35
928.65	228.37
928.95	228.38
929.26	228.29
929.56	228.32
929.86	228.35
930.16	228.33
930.46	228.32
930.76	228.32
931.06	228.24
931.36	228.19
931.66	228.23
931.96	228.25
932.26	228.25
932.56	228.17
932.86	228.18
933.16	228.17
933.46	228.16
933.76	228.14
934.06	228.18
934.36	228.23
934.66	228.22
934.96	228.20
935.26	228.20
935.56	228.23
935.86	228.18
936.16	228.16
936.46	228.15
936.76	228.14
937.06	228.13
937.36	228.15
937.66	228.16
937.96	228.15
938.26	228.11
938.56	228.09
938.86	228.10
939.16	228.15
939.46	228.15
939.76	228.17
940.06	228.15
940.35	228.12
940.65	228.03
940.95	228.05
941.25	228.00
941.55	227.96
941.85	227.96
942.15	228.00
942.45	228.05
942.75	228.04
943.04	228.04
943.34	228.07
943.64	228.04
943.94	228.02
944.24	228.01
944.54	228.04
944.84	228.04
945.13	228.01
945.43	227.97
945.73	227.96
946.03	227.94
946.33	227.94
946.62	227.92
946.92	227.92
947.22	227.93
947.52	227.95
947.82	227.97
948.11	227.95
948.41	227.91
948.71	227.87
949.01	227.88
949.31	227.87
949.60	227.86
949.90	227.89
950.20	227.89
950.50	227.88
950.79	227.87
951.09	227.89
951.39	227.89
951.69	227.89
951.98	227.93
952.28	227.94
952.58	227.94
952.87	227.93
953.17	227.96
953.47	227.94
953.76	227.94
954.06	227.91
954.36	227.89
954.66	227.90
954.95	227.94
955.25	227.94
955.55	227.95
955.84	227.93
956.14	227.93
956.44	227.94
956.73	227.91
957.03	227.93
957.32	227.93
957.62	227.93
957.92	227.96
958.21	227.94
958.51	228.14
958.81	228.16
959.10	228.18
959.40	228.21
959.69	228.23
959.99	228.25
960.29	228.26
960.58	228.26
960.88	228.33
961.17	228.30
961.47	228.33
961.76	228.31
962.06	228.34
962.36	228.32
962.65	228.35
962.95	228.36
963.24	228.34
963.54	228.34
963.83	228.35
964.13	228.34
964.42	228.32
964.72	228.17
965.01	228.17
965.31	228.17
965.60	228.12
965.90	228.23
966.19	228.19
966.49	228.19
966.78	228.20
967.08	228.17
967.37	228.18
967.67	228.15
967.96	228.19
968.26	228.18
968.55	228.20
968.85	228.18
969.14	228.19
969.43	228.19
969.73	228.17
970.02	228.16
970.32	228.16
970.61	228.14
970.91	228.09
971.20	228.06
971.49	228.05
971.79	228.06
972.08	227.93
972.38	227.97
972.67	227.95
972.96	227.97
973.26	227.94
973.55	227.98
973.85	227.97
974.14	227.96
974.43	227.97
974.73	227.94
975.02	227.93
975.31	227.93
975.61	227.93
975.90	227.92
976.19	227.91
976.49	227.92
976.78	227.93
977.07	227.94
977.37	227.95
977.66	227.96
977.95	227.95
978.24	227.96
978.54	227.98
978.83	227.98
979.12	227.97
979.42	227.98
979.71	227.95
980.00	227.94
980.29	227.95
980.59	227.91
980.88	227.96
981.17	227.95
981.46	227.95
981.76	227.94
982.05	227.99
982.34	228.01
982.63	228.00
982.93	228.01
983.22	228.03
983.51	228.04
983.80	228.07
984.09	228.08
984.39	228.08
984.68	228.05
984.97	228.06
985.26	228.06
985.55	228.08
985.85	228.05
986.14	228.08
986.43	228.10
986.72	228.10
987.01	228.04
987.30	228.04
987.59	228.04
987.89	228.06
988.18	228.01
988.47	228.00
988.76	227.98
989.05	227.96
989.34	227.95
989.63	228.00
989.92	227.97
990.22	227.94
990.51	227.95
990.80	227.95
991.09	227.95
991.38	227.96
991.67	227.93
991.96	227.91
992.25	227.92
992.54	227.88
992.83	227.90
993.12	227.89
993.41	227.92
993.70	228.00
993.99	228.02
994.28	228.04
994.58	228.08
994.87	228.07
995.16	228.07
995.45	228.06
995.74	227.98
996.03	228.01
996.32	228.04
996.61	228.07
996.90	228.07
997.19	228.07
997.48	228.07
997.77	228.06
998.06	228.07
998.34	228.05
998.63	228.05
998.92	228.04
999.21	228.07
999.50	228.08
999.79	228.01
1000.08	228.01
1000.37	227.99
1000.66	227.96
1000.95	228.01
1001.24	228.01
1001.53	228.04
1001.82	228.05
1002.11	228.01
1002.40	228.02
1002.68	228.06
1002.97	228.16
1003.26	228.14
1003.55	228.12
1003.84	228.11
1004.13	228.18
1004.42	228.18
1004.71	228.18
1004.99	228.17
1005.28	228.22
1005.57	228.20
1005.86	228.18
1006.15	228.17
1006.44	228.14
1006.72	228.17
1007.01	228.15
1007.30	228.15
1007.59	228.12
1007.88	228.12
1008.17	228.13
1008.45	228.10
1008.74	228.03
1009.03	227.94
1009.32	227.93
1009.60	227.93
1009.89	227.93
1010.18	227.85
1010.47	227.85
1010.76	227.84
1011.04	227.83
1011.33	227.81
1011.62	227.82
1011.91	227.83
1012.19	227.84
1012.48	227.84
1012.77	227.84
1013.05	227.90
1013.34	227.90
1013.63	227.89
1013.92	227.90
1014.20	227.88
1014.49	227.88
1014.78	227.89
1015.06	227.85
1015.35	227.86
1015.64	227.89
1015.92	227.91
1016.21	227.93
1016.50	227.93
1016.78	227.95
1017.07	227.97
1017.36	227.94
1017.64	227.91
1017.93	227.92
1018.22	227.91
1018.50	227.90
1018.79	227.89
1019.08	227.83
1019.36	227.83
1019.65	227.81
1019.93	227.86
1020.22	227.90
1020.51	227.98
1020.79	227.96
1021.08	227.69
1021.36	227.57
1021.65	227.88
1021.94	227.85
1022.22	227.96
1022.51	227.39
1022.79	228.74
1023.08	228.32
1023.36	229.77
1023.65	227.32
>>>>>End Processed Spectral Data<<<<<
