SpectraSuite Data File
++++++++++++++++++++++++++++++++++++
Date: Wed Oct 07 01:45:01 EDT 2015
User: lab3
Dark Spectrum Present: No
Reference Spectrum Present: No
Number of Sampled Component Spectra: 1
Spectrometers: USB2E7196
Integration Time (usec): 66000 (USB2E7196)
Spectra Averaged: 10000 (USB2E7196)
Boxcar Smoothing: 10 (USB2E7196)
Correct for Electrical Dark: No (USB2E7196)
Strobe/Lamp Enabled: No (USB2E7196)
Correct for Detector Non-linearity: No (USB2E7196)
Correct for Stray Light: No (USB2E7196)
Number of Pixels in Processed Spectrum: 2048
>>>>>Begin Processed Spectral Data<<<<<
339.09	0.00
339.48	212.38
339.86	213.82
340.24	215.25
340.63	216.65
341.01	220.79
341.39	219.32
341.78	220.83
342.16	222.17
342.54	222.38
342.93	211.03
343.31	221.69
343.69	222.22
344.07	222.69
344.46	223.13
344.84	223.54
345.22	223.74
345.60	224.02
345.99	224.23
346.37	224.37
346.75	224.49
347.13	224.58
347.52	224.67
347.90	224.80
348.28	224.85
348.66	224.94
349.05	224.93
349.43	225.00
349.81	225.08
350.19	225.14
350.57	225.23
350.96	225.33
351.34	225.44
351.72	225.56
352.10	225.68
352.48	225.75
352.87	225.80
353.25	225.87
353.63	225.93
354.01	225.99
354.39	226.07
354.77	226.15
355.15	226.28
355.54	226.32
355.92	226.33
356.30	226.40
356.68	226.59
357.06	226.67
357.44	226.71
357.82	226.76
358.20	226.98
358.58	227.04
358.97	227.11
359.35	227.20
359.73	227.30
360.11	227.35
360.49	227.42
360.87	227.47
361.25	227.54
361.63	227.65
362.01	227.70
362.39	227.73
362.77	227.79
363.15	227.81
363.53	227.85
363.91	227.89
364.29	227.91
364.67	227.76
365.05	227.79
365.43	227.83
365.81	227.87
366.19	227.83
366.57	227.91
366.95	227.91
367.33	227.87
367.71	227.86
368.09	227.89
368.47	227.89
368.85	227.89
369.23	227.91
369.61	227.83
369.99	227.87
370.37	227.88
370.75	228.00
371.13	227.96
371.51	227.91
371.89	227.90
372.27	227.89
372.65	227.87
373.03	227.84
373.41	227.79
373.78	227.74
374.16	227.61
374.54	227.50
374.92	227.45
375.30	227.42
375.68	227.34
376.06	227.30
376.44	227.23
376.82	227.20
377.19	227.15
377.57	227.11
377.95	226.99
378.33	226.93
378.71	226.72
379.09	226.67
379.47	226.65
379.84	226.59
380.22	226.52
380.60	226.44
380.98	226.39
381.36	226.35
381.73	226.28
382.11	226.27
382.49	226.23
382.87	226.17
383.25	226.13
383.62	226.30
384.00	226.22
384.38	226.20
384.76	226.19
385.13	226.21
385.51	226.18
385.89	226.13
386.27	226.11
386.64	226.10
387.02	226.06
387.40	226.01
387.78	226.00
388.15	225.98
388.53	225.96
388.91	225.93
389.29	225.90
389.66	225.91
390.04	225.87
390.42	225.88
390.79	225.88
391.17	225.87
391.55	225.65
391.92	225.65
392.30	225.66
392.68	225.62
393.05	225.60
393.43	225.60
393.81	225.63
394.18	225.61
394.56	225.62
394.94	225.68
395.31	225.68
395.69	225.76
396.06	225.81
396.44	225.86
396.82	225.88
397.19	226.01
397.57	226.03
397.95	226.11
398.32	226.11
398.70	226.18
399.07	226.28
399.45	226.35
399.82	226.42
400.20	226.48
400.58	226.57
400.95	226.59
401.33	226.72
401.70	226.95
402.08	227.10
402.45	227.23
402.83	227.40
403.20	227.57
403.58	227.71
403.95	227.92
404.33	228.14
404.71	228.36
405.08	228.67
405.46	228.93
405.83	229.21
406.21	229.51
406.58	229.83
406.96	230.16
407.33	230.54
407.70	230.98
408.08	231.56
408.45	232.07
408.83	232.62
409.20	233.13
409.58	233.59
409.95	234.22
410.33	234.91
410.70	235.56
411.08	236.33
411.45	237.14
411.82	237.97
412.20	238.91
412.57	240.03
412.95	240.93
413.32	242.08
413.69	243.28
414.07	244.55
414.44	245.93
414.82	247.33
415.19	248.99
415.56	250.67
415.94	252.41
416.31	254.38
416.68	256.34
417.06	258.62
417.43	260.75
417.81	263.20
418.18	265.70
418.55	268.43
418.93	271.27
419.30	274.25
419.67	277.40
420.04	280.63
420.42	284.01
420.79	287.91
421.16	291.85
421.54	295.83
421.91	300.00
422.28	304.34
422.66	309.00
423.03	313.44
423.40	318.08
423.77	323.06
424.15	328.15
424.52	333.43
424.89	339.15
425.26	344.82
425.64	350.08
426.01	355.99
426.38	362.02
426.75	368.23
427.13	374.58
427.50	381.22
427.87	388.12
428.24	395.08
428.61	401.72
428.99	408.90
429.36	416.80
429.73	424.33
430.10	431.84
430.47	439.53
430.85	447.47
431.22	455.91
431.59	464.59
431.96	473.07
432.33	482.49
432.70	491.45
433.08	502.06
433.45	512.05
433.82	521.96
434.19	533.05
434.56	543.97
434.93	554.55
435.30	565.06
435.68	576.95
436.05	588.60
436.42	600.28
436.79	610.96
437.16	622.58
437.53	634.97
437.90	647.38
438.27	659.56
438.64	672.76
439.01	684.76
439.38	695.76
439.75	706.40
440.13	718.55
440.50	730.09
440.87	739.35
441.24	749.52
441.61	760.68
441.98	768.97
442.35	778.81
442.72	788.84
443.09	798.41
443.46	804.70
443.83	809.50
444.20	813.53
444.57	819.26
444.94	822.73
445.31	826.34
445.68	829.49
446.05	831.92
446.42	831.84
446.79	831.49
447.16	831.24
447.53	831.07
447.90	827.69
448.27	824.53
448.64	819.38
449.01	815.92
449.37	808.41
449.74	801.59
450.11	792.74
450.48	782.98
450.85	773.14
451.22	764.73
451.59	756.43
451.96	748.92
452.33	738.01
452.70	728.26
453.07	716.44
453.43	704.62
453.80	693.07
454.17	681.98
454.54	671.76
454.91	660.21
455.28	649.28
455.65	638.97
456.02	628.01
456.38	619.19
456.75	607.89
457.12	598.79
457.49	589.61
457.86	580.90
458.23	573.22
458.59	564.79
458.96	556.13
459.33	548.51
459.70	540.75
460.07	534.83
460.43	527.86
460.80	521.35
461.17	515.68
461.54	509.56
461.91	503.81
462.27	497.96
462.64	493.17
463.01	487.74
463.38	482.24
463.74	477.29
464.11	472.88
464.48	468.89
464.85	464.60
465.21	461.31
465.58	457.66
465.95	453.51
466.32	450.23
466.68	447.01
467.05	443.77
467.42	440.62
467.78	437.24
468.15	434.12
468.52	431.83
468.88	428.78
469.25	426.01
469.62	423.82
469.98	421.44
470.35	419.33
470.72	417.40
471.08	415.46
471.45	413.83
471.82	412.01
472.18	410.11
472.55	408.87
472.92	407.33
473.28	406.12
473.65	404.83
474.02	403.57
474.38	402.51
474.75	401.87
475.11	401.00
475.48	400.59
475.85	400.14
476.21	399.86
476.58	399.66
476.94	399.80
477.31	399.81
477.67	399.85
478.04	400.12
478.41	400.52
478.77	401.09
479.14	401.43
479.50	402.19
479.87	403.17
480.23	404.12
480.60	405.02
480.96	405.92
481.33	407.34
481.69	408.72
482.06	410.07
482.42	411.31
482.79	412.87
483.15	414.70
483.52	416.78
483.88	418.75
484.25	420.85
484.61	423.05
484.98	425.43
485.34	428.12
485.71	430.90
486.07	433.91
486.44	436.87
486.80	440.21
487.17	443.60
487.53	447.31
487.90	451.18
488.26	455.41
488.62	459.87
488.99	464.33
489.35	469.01
489.72	474.05
490.08	479.34
490.44	484.74
490.81	490.36
491.17	496.16
491.54	502.38
491.90	508.73
492.26	515.52
492.63	522.66
492.99	530.12
493.36	537.75
493.72	545.74
494.08	553.95
494.45	562.57
494.81	571.60
495.17	580.84
495.54	590.61
495.90	600.81
496.26	611.21
496.63	621.92
496.99	633.00
497.35	644.63
497.72	656.57
498.08	668.81
498.44	681.41
498.80	694.69
499.17	708.26
499.53	722.28
499.89	736.74
500.26	751.44
500.62	766.48
500.98	782.43
501.34	798.40
501.71	815.12
502.07	832.18
502.43	849.71
502.79	867.50
503.16	885.76
503.52	904.26
503.88	923.17
504.24	942.56
504.60	962.22
504.97	982.47
505.33	1003.24
505.69	1025.12
506.05	1047.21
506.41	1069.31
506.78	1091.57
507.14	1114.34
507.50	1137.65
507.86	1161.33
508.22	1185.24
508.59	1209.04
508.95	1233.86
509.31	1259.27
509.67	1285.33
510.03	1311.37
510.39	1337.30
510.75	1363.31
511.12	1389.62
511.48	1416.32
511.84	1442.94
512.20	1469.85
512.56	1497.93
512.92	1525.90
513.28	1553.17
513.64	1580.88
514.00	1608.97
514.37	1637.35
514.73	1665.81
515.09	1693.60
515.45	1721.64
515.81	1750.05
516.17	1778.20
516.53	1805.67
516.89	1832.81
517.25	1860.24
517.61	1887.49
517.97	1915.40
518.33	1942.82
518.69	1970.20
519.05	1997.85
519.41	2025.69
519.77	2053.74
520.13	2080.21
520.49	2106.55
520.85	2133.36
521.21	2159.58
521.57	2186.13
521.93	2211.52
522.29	2237.66
522.65	2263.59
523.01	2289.28
523.37	2314.15
523.73	2339.82
524.09	2365.15
524.45	2390.38
524.81	2414.97
525.17	2439.49
525.53	2462.96
525.89	2486.94
526.25	2510.65
526.61	2532.60
526.97	2554.63
527.33	2576.29
527.68	2597.98
528.04	2619.29
528.40	2639.52
528.76	2659.68
529.12	2679.29
529.48	2699.74
529.84	2717.45
530.20	2735.41
530.56	2752.74
530.91	2770.09
531.27	2786.72
531.63	2802.57
531.99	2817.89
532.35	2833.04
532.71	2847.77
533.07	2863.07
533.42	2876.35
533.78	2889.66
534.14	2904.16
534.50	2917.56
534.86	2931.59
535.21	2943.10
535.57	2954.58
535.93	2965.56
536.29	2974.94
536.65	2984.12
537.00	2992.02
537.36	3001.02
537.72	3009.20
538.08	3016.95
538.44	3023.33
538.79	3029.65
539.15	3034.65
539.51	3038.92
539.87	3041.86
540.22	3043.03
540.58	3044.48
540.94	3046.51
541.29	3047.68
541.65	3047.31
542.01	3046.51
542.37	3043.95
542.72	3043.25
543.08	3040.69
543.44	3038.32
543.79	3035.81
544.15	3032.48
544.51	3028.97
544.87	3024.58
545.22	3019.21
545.58	3013.29
545.94	3007.84
546.29	3000.92
546.65	2994.06
547.01	2987.36
547.36	2981.30
547.72	2975.40
548.07	2967.71
548.43	2958.85
548.79	2949.54
549.14	2940.54
549.50	2931.69
549.86	2922.00
550.21	2910.44
550.57	2900.24
550.92	2888.38
551.28	2876.59
551.64	2865.18
551.99	2853.57
552.35	2841.51
552.70	2829.31
553.06	2817.69
553.41	2805.61
553.77	2793.09
554.13	2780.67
554.48	2767.13
554.84	2752.25
555.19	2737.82
555.55	2723.46
555.90	2709.63
556.26	2696.08
556.61	2681.49
556.97	2665.71
557.32	2650.30
557.68	2635.35
558.03	2619.93
558.39	2605.39
558.74	2591.67
559.10	2576.07
559.45	2560.37
559.81	2545.27
560.16	2529.80
560.52	2513.97
560.87	2498.50
561.23	2482.54
561.58	2467.18
561.94	2451.46
562.29	2435.39
562.64	2419.48
563.00	2403.54
563.35	2387.88
563.71	2371.74
564.06	2355.77
564.42	2340.31
564.77	2325.03
565.12	2309.35
565.48	2293.35
565.83	2277.40
566.19	2261.33
566.54	2245.47
566.89	2229.24
567.25	2213.08
567.60	2197.81
567.96	2182.00
568.31	2164.56
568.66	2147.85
569.02	2131.85
569.37	2116.39
569.72	2101.44
570.08	2086.13
570.43	2070.13
570.78	2053.85
571.14	2037.60
571.49	2021.25
571.84	2005.14
572.20	1987.79
572.55	1971.12
572.90	1954.64
573.26	1938.42
573.61	1921.50
573.96	1905.07
574.31	1888.52
574.67	1871.60
575.02	1854.31
575.37	1836.99
575.72	1820.57
576.08	1804.09
576.43	1786.57
576.78	1769.41
577.13	1752.48
577.49	1735.70
577.84	1719.53
578.19	1702.93
578.54	1686.21
578.90	1669.41
579.25	1652.42
579.60	1636.78
579.95	1620.84
580.30	1604.84
580.66	1588.51
581.01	1572.30
581.36	1556.12
581.71	1540.84
582.06	1525.63
582.42	1510.25
582.77	1495.24
583.12	1480.49
583.47	1465.82
583.82	1451.35
584.17	1436.23
584.53	1421.24
584.88	1406.60
585.23	1391.80
585.58	1377.37
585.93	1362.81
586.28	1349.29
586.63	1335.69
586.98	1321.51
587.34	1307.81
587.69	1293.92
588.04	1280.33
588.39	1267.02
588.74	1253.39
589.09	1239.85
589.44	1225.95
589.79	1212.75
590.14	1199.57
590.49	1186.40
590.84	1173.45
591.19	1160.91
591.54	1148.53
591.89	1135.81
592.25	1123.35
592.60	1110.78
592.95	1098.34
593.30	1086.40
593.65	1074.12
594.00	1062.16
594.35	1051.12
594.70	1039.37
595.05	1028.24
595.40	1016.99
595.75	1005.59
596.10	994.81
596.45	983.94
596.80	973.61
597.15	963.18
597.50	952.72
597.85	942.68
598.19	932.60
598.54	922.47
598.89	912.86
599.24	903.66
599.59	894.19
599.94	885.45
600.29	876.80
600.64	867.89
600.99	858.87
601.34	850.22
601.69	841.02
602.04	832.78
602.39	824.44
602.74	816.32
603.08	808.30
603.43	800.32
603.78	792.35
604.13	784.38
604.48	776.41
604.83	768.81
605.18	761.14
605.53	753.69
605.87	746.25
606.22	738.91
606.57	731.48
606.92	724.04
607.27	716.61
607.62	709.32
607.96	702.32
608.31	695.86
608.66	689.22
609.01	682.90
609.36	676.54
609.70	670.17
610.05	663.77
610.40	657.58
610.75	651.34
611.10	645.36
611.44	639.35
611.79	633.54
612.14	627.58
612.49	621.71
612.83	616.16
613.18	610.69
613.53	605.22
613.88	599.86
614.22	594.91
614.57	589.87
614.92	584.98
615.27	580.18
615.61	575.26
615.96	570.42
616.31	565.55
616.65	560.82
617.00	556.22
617.35	551.73
617.70	547.24
618.04	542.87
618.39	538.58
618.74	534.60
619.08	530.54
619.43	526.65
619.78	522.73
620.12	518.72
620.47	514.93
620.82	511.24
621.16	507.61
621.51	504.02
621.85	500.42
622.20	496.86
622.55	493.34
622.89	489.86
623.24	486.55
623.59	483.31
623.93	480.17
624.28	477.12
624.62	474.28
624.97	471.49
625.32	468.60
625.66	465.70
626.01	462.74
626.35	459.97
626.70	457.14
627.04	454.51
627.39	451.87
627.73	449.29
628.08	446.75
628.43	444.24
628.77	441.66
629.12	439.18
629.46	436.83
629.81	434.62
630.15	432.32
630.50	430.06
630.84	427.84
631.19	425.66
631.53	423.60
631.88	421.35
632.22	419.17
632.57	417.31
632.91	415.41
633.26	413.58
633.60	411.76
633.95	410.03
634.29	408.18
634.64	406.38
634.98	404.49
635.32	402.77
635.67	401.22
636.01	399.66
636.36	398.15
636.70	396.72
637.05	395.12
637.39	393.69
637.73	392.25
638.08	390.88
638.42	389.57
638.77	388.11
639.11	386.62
639.45	385.19
639.80	383.72
640.14	382.30
640.49	380.90
640.83	379.49
641.17	378.16
641.52	376.84
641.86	375.57
642.20	374.45
642.55	373.14
642.89	371.85
643.23	370.63
643.58	369.56
643.92	368.31
644.26	367.16
644.61	366.06
644.95	364.91
645.29	363.72
645.64	362.50
645.98	361.40
646.32	360.43
646.66	359.38
647.01	358.35
647.35	357.43
647.69	356.47
648.04	355.58
648.38	354.61
648.72	353.70
649.06	352.79
649.41	351.86
649.75	350.98
650.09	350.12
650.43	349.25
650.78	348.31
651.12	347.47
651.46	346.63
651.80	345.81
652.14	345.03
652.49	344.32
652.83	343.54
653.17	342.74
653.51	341.95
653.85	341.28
654.20	340.57
654.54	339.76
654.88	338.99
655.22	338.29
655.56	337.54
655.90	336.85
656.25	336.17
656.59	335.50
656.93	334.87
657.27	334.30
657.61	333.64
657.95	333.05
658.29	332.42
658.64	331.82
658.98	331.16
659.32	330.51
659.66	329.90
660.00	329.34
660.34	328.78
660.68	328.17
661.02	327.49
661.36	326.86
661.70	326.28
662.05	325.71
662.39	325.15
662.73	324.70
663.07	324.26
663.41	323.78
663.75	323.25
664.09	322.73
664.43	322.10
664.77	321.57
665.11	320.99
665.45	320.46
665.79	319.95
666.13	319.43
666.47	318.90
666.81	318.33
667.15	317.72
667.49	317.24
667.83	316.82
668.17	316.36
668.51	315.95
668.85	315.56
669.19	315.22
669.53	314.70
669.87	314.15
670.21	313.59
670.55	313.07
670.89	312.67
671.23	312.20
671.57	311.79
671.91	311.43
672.25	311.10
672.58	310.77
672.92	310.33
673.26	309.99
673.60	309.64
673.94	309.27
674.28	308.94
674.62	308.58
674.96	308.14
675.30	307.79
675.64	307.36
675.97	306.90
676.31	306.41
676.65	306.01
676.99	305.69
677.33	305.26
677.67	304.86
678.01	304.39
678.34	303.99
678.68	303.61
679.02	303.16
679.36	302.72
679.70	302.26
680.04	301.87
680.37	301.45
680.71	301.06
681.05	300.71
681.39	300.31
681.73	299.85
682.06	299.43
682.40	299.03
682.74	298.68
683.08	298.38
683.42	298.00
683.75	297.66
684.09	297.19
684.43	296.82
684.77	296.42
685.10	296.04
685.44	295.64
685.78	295.22
686.12	294.84
686.45	294.42
686.79	293.98
687.13	293.58
687.46	293.14
687.80	292.72
688.14	292.25
688.48	291.84
688.81	291.41
689.15	291.05
689.49	290.61
689.82	290.16
690.16	289.62
690.50	289.18
690.83	288.72
691.17	288.27
691.51	287.83
691.84	287.44
692.18	286.99
692.52	286.53
692.85	286.10
693.19	285.72
693.52	285.29
693.86	284.85
694.20	284.42
694.53	284.00
694.87	283.53
695.21	283.07
695.54	282.63
695.88	282.17
696.21	281.67
696.55	281.23
696.88	280.78
697.22	280.36
697.56	279.95
697.89	279.48
698.23	279.06
698.56	278.60
698.90	278.20
699.23	277.74
699.57	277.33
699.90	276.89
700.24	276.42
700.58	276.02
700.91	275.65
701.25	275.39
701.58	275.07
701.92	274.72
702.25	274.34
702.59	273.93
702.92	273.54
703.26	273.13
703.59	272.71
703.93	272.44
704.26	272.04
704.60	271.62
704.93	271.21
705.26	270.80
705.60	270.44
705.93	269.98
706.27	269.66
706.60	269.32
706.94	269.00
707.27	268.57
707.61	268.18
707.94	267.75
708.27	267.18
708.61	266.71
708.94	266.28
709.28	265.88
709.61	265.50
709.94	265.15
710.28	264.80
710.61	264.46
710.95	263.94
711.28	263.70
711.61	263.34
711.95	263.04
712.28	262.66
712.61	262.28
712.95	262.03
713.28	261.74
713.61	261.34
713.95	260.95
714.28	260.63
714.61	260.26
714.95	259.93
715.28	259.58
715.61	259.27
715.95	258.97
716.28	258.64
716.61	258.35
716.95	258.01
717.28	257.70
717.61	257.37
717.94	257.08
718.28	256.66
718.61	256.35
718.94	256.02
719.27	255.74
719.61	255.47
719.94	255.14
720.27	254.76
720.60	254.48
720.94	254.19
721.27	253.91
721.60	253.67
721.93	253.39
722.27	253.17
722.60	252.90
722.93	252.58
723.26	252.34
723.59	252.04
723.93	251.80
724.26	251.55
724.59	251.29
724.92	251.05
725.25	250.85
725.59	250.60
725.92	250.38
726.25	250.13
726.58	249.88
726.91	249.63
727.24	249.41
727.57	249.16
727.91	248.89
728.24	248.68
728.57	248.44
728.90	248.23
729.23	247.94
729.56	247.81
729.89	247.60
730.22	247.37
730.55	247.15
730.89	246.93
731.22	246.70
731.55	246.49
731.88	246.28
732.21	246.04
732.54	245.82
732.87	245.62
733.20	245.44
733.53	245.24
733.86	245.07
734.19	244.85
734.52	244.70
734.85	244.66
735.18	244.45
735.51	244.32
735.84	244.14
736.17	244.01
736.50	243.73
736.83	243.77
737.16	243.59
737.49	243.42
737.82	243.22
738.15	243.07
738.48	242.89
738.81	242.70
739.14	242.51
739.47	242.32
739.80	242.14
740.13	241.98
740.46	241.77
740.79	241.57
741.12	241.39
741.45	241.18
741.78	240.90
742.11	240.78
742.44	240.56
742.77	240.41
743.10	240.22
743.43	240.05
743.75	239.69
744.08	239.81
744.41	239.64
744.74	239.48
745.07	239.29
745.40	239.18
745.73	239.11
746.06	238.98
746.39	238.87
746.71	238.71
747.04	238.55
747.37	238.40
747.70	238.29
748.03	238.16
748.36	238.06
748.68	237.92
749.01	237.73
749.34	237.61
749.67	237.48
750.00	237.38
750.33	237.39
750.65	237.28
750.98	236.88
751.31	236.77
751.64	236.67
751.97	236.65
752.29	236.50
752.62	236.29
752.95	236.16
753.28	236.01
753.60	235.88
753.93	235.81
754.26	235.72
754.59	235.54
754.91	235.41
755.24	235.27
755.57	235.16
755.90	235.04
756.22	234.90
756.55	234.75
756.88	234.60
757.20	234.36
757.53	234.20
757.86	234.09
758.19	233.99
758.51	233.88
758.84	233.68
759.17	233.56
759.49	233.47
759.82	233.46
760.15	233.38
760.47	233.28
760.80	233.13
761.13	233.06
761.45	232.97
761.78	232.88
762.11	232.80
762.43	232.69
762.76	232.59
763.08	232.53
763.41	232.46
763.74	232.39
764.06	232.30
764.39	232.22
764.71	232.14
765.04	232.03
765.37	231.93
765.69	231.85
766.02	231.77
766.34	231.68
766.67	231.53
767.00	231.49
767.32	231.51
767.65	231.55
767.97	231.46
768.30	231.40
768.62	231.33
768.95	231.24
769.27	231.17
769.60	231.13
769.92	231.03
770.25	230.93
770.57	230.82
770.90	230.76
771.22	230.68
771.55	230.63
771.87	230.58
772.20	230.52
772.52	230.62
772.85	230.78
773.17	230.73
773.50	230.66
773.82	230.57
774.15	230.42
774.47	230.25
774.80	230.18
775.12	230.12
775.45	230.07
775.77	230.02
776.09	229.98
776.42	229.93
776.74	229.94
777.07	229.89
777.39	229.86
777.72	229.79
778.04	229.77
778.36	229.71
778.69	229.66
779.01	229.63
779.33	229.43
779.66	229.17
779.98	229.12
780.31	229.08
780.63	229.12
780.95	229.10
781.28	229.06
781.60	229.00
781.92	228.96
782.25	228.92
782.57	228.88
782.89	228.83
783.22	228.78
783.54	228.70
783.86	228.68
784.19	228.63
784.51	228.66
784.83	228.59
785.16	228.56
785.48	228.52
785.80	228.49
786.12	228.47
786.45	228.44
786.77	228.42
787.09	228.37
787.42	228.27
787.74	228.24
788.06	228.22
788.38	228.18
788.71	228.14
789.03	228.11
789.35	228.11
789.67	228.05
789.99	228.04
790.32	227.99
790.64	227.98
790.96	228.13
791.28	228.03
791.61	228.00
791.93	227.99
792.25	227.95
792.57	228.05
792.89	228.00
793.21	227.98
793.54	227.93
793.86	227.89
794.18	227.87
794.50	227.81
794.82	227.79
795.14	227.79
795.47	227.80
795.79	227.78
796.11	227.71
796.43	227.69
796.75	227.66
797.07	227.65
797.39	227.61
797.71	227.43
798.04	227.42
798.36	227.41
798.68	227.38
799.00	227.37
799.32	227.25
799.64	227.26
799.96	227.23
800.28	227.25
800.60	227.23
800.92	227.22
801.24	227.19
801.56	227.19
801.89	227.15
802.21	227.14
802.53	227.09
802.85	227.11
803.17	227.18
803.49	227.12
803.81	227.08
804.13	227.05
804.45	227.01
804.77	227.00
805.09	226.98
805.41	226.95
805.73	226.90
806.05	226.83
806.37	226.80
806.69	226.76
807.01	226.72
807.33	226.72
807.65	226.64
807.97	226.70
808.28	226.66
808.60	226.64
808.92	226.59
809.24	226.70
809.56	226.65
809.88	226.56
810.20	226.56
810.52	226.58
810.84	226.54
811.16	226.51
811.48	226.48
811.80	226.53
812.12	226.52
812.43	226.54
812.75	226.54
813.07	226.51
813.39	226.51
813.71	226.47
814.03	226.44
814.35	226.44
814.67	226.35
814.98	226.32
815.30	226.31
815.62	226.27
815.94	226.14
816.26	226.15
816.58	226.10
816.89	226.10
817.21	226.04
817.53	226.05
817.85	226.05
818.17	226.03
818.48	225.95
818.80	225.98
819.12	225.94
819.44	225.89
819.76	225.86
820.07	225.84
820.39	225.83
820.71	225.83
821.03	225.82
821.34	225.79
821.66	225.81
821.98	225.81
822.30	225.80
822.61	225.91
822.93	225.87
823.25	225.86
823.57	225.83
823.88	225.85
824.20	225.83
824.52	225.85
824.83	225.83
825.15	225.81
825.47	225.78
825.79	225.78
826.10	225.77
826.42	225.76
826.74	225.76
827.05	225.74
827.37	225.74
827.69	225.72
828.00	225.72
828.32	225.70
828.64	225.67
828.95	225.76
829.27	225.69
829.58	225.68
829.90	225.70
830.22	225.70
830.53	225.67
830.85	225.64
831.17	225.58
831.48	225.58
831.80	225.58
832.11	225.56
832.43	225.53
832.75	225.53
833.06	225.63
833.38	225.58
833.69	225.57
834.01	225.57
834.32	225.56
834.64	225.53
834.96	225.53
835.27	225.52
835.59	225.45
835.90	225.42
836.22	225.41
836.53	225.37
836.85	225.34
837.16	225.52
837.48	225.52
837.79	225.57
838.11	225.57
838.42	225.57
838.74	225.58
839.05	225.56
839.37	225.55
839.68	225.43
840.00	225.42
840.31	225.44
840.63	225.42
840.94	225.40
841.26	225.37
841.57	225.36
841.88	225.38
842.20	225.34
842.51	225.31
842.83	225.31
843.14	225.47
843.46	225.46
843.77	225.35
844.08	225.34
844.40	225.28
844.71	225.26
845.03	225.23
845.34	225.21
845.65	225.21
845.97	225.21
846.28	225.22
846.60	225.22
846.91	225.19
847.22	225.18
847.54	225.22
847.85	225.23
848.16	225.21
848.48	225.17
848.79	225.24
849.10	225.26
849.42	225.27
849.73	225.10
850.04	225.09
850.36	225.02
850.67	225.05
850.98	225.05
851.30	225.07
851.61	225.07
851.92	225.06
852.23	225.12
852.55	225.12
852.86	225.12
853.17	225.13
853.49	225.17
853.80	225.20
854.11	225.21
854.42	225.23
854.74	225.21
855.05	225.22
855.36	225.12
855.67	225.12
855.99	225.12
856.30	225.34
856.61	225.33
856.92	225.33
857.23	225.34
857.55	225.32
857.86	225.30
858.17	225.33
858.48	225.30
858.79	225.25
859.11	225.27
859.42	225.25
859.73	225.23
860.04	225.21
860.35	225.15
860.66	225.09
860.98	225.08
861.29	225.10
861.60	225.09
861.91	225.13
862.22	225.10
862.53	225.07
862.84	224.85
863.16	224.89
863.47	224.85
863.78	224.83
864.09	224.84
864.40	224.85
864.71	224.84
865.02	224.87
865.33	224.84
865.64	224.81
865.95	224.81
866.27	224.92
866.58	224.90
866.89	224.93
867.20	224.93
867.51	224.90
867.82	224.88
868.13	224.94
868.44	224.89
868.75	224.93
869.06	224.94
869.37	224.96
869.68	224.91
869.99	224.95
870.30	224.95
870.61	224.96
870.92	224.94
871.23	224.92
871.54	224.93
871.85	224.98
872.16	225.00
872.47	224.98
872.78	224.88
873.09	224.90
873.40	224.88
873.71	224.89
874.02	224.91
874.33	224.89
874.64	224.84
874.95	224.88
875.26	224.83
875.56	224.83
875.87	224.81
876.18	224.81
876.49	224.98
876.80	224.96
877.11	224.93
877.42	224.94
877.73	224.95
878.04	224.92
878.35	224.91
878.66	224.91
878.96	224.91
879.27	224.90
879.58	224.88
879.89	224.87
880.20	224.92
880.51	224.91
880.82	224.92
881.12	224.93
881.43	224.89
881.74	224.87
882.05	224.85
882.36	224.87
882.67	224.88
882.97	224.67
883.28	224.66
883.59	224.65
883.90	224.67
884.21	224.69
884.51	224.68
884.82	224.65
885.13	224.65
885.44	224.64
885.74	224.64
886.05	224.64
886.36	224.64
886.67	224.57
886.98	224.66
887.28	224.68
887.59	224.67
887.90	224.68
888.20	224.68
888.51	224.72
888.82	224.69
889.13	224.70
889.43	224.87
889.74	224.86
890.05	224.86
890.35	224.84
890.66	224.80
890.97	224.79
891.28	224.77
891.58	224.77
891.89	224.77
892.20	224.75
892.50	224.73
892.81	224.72
893.12	224.72
893.42	224.63
893.73	224.63
894.04	224.63
894.34	224.64
894.65	224.64
894.95	224.62
895.26	224.63
895.57	224.71
895.87	224.52
896.18	224.55
896.48	224.56
896.79	224.56
897.10	224.59
897.40	224.60
897.71	224.62
898.01	224.61
898.32	224.63
898.63	224.63
898.93	224.64
899.24	224.64
899.54	224.63
899.85	224.63
900.15	224.62
900.46	224.61
900.76	224.62
901.07	224.62
901.38	224.61
901.68	224.64
901.99	224.54
902.29	224.56
902.60	224.54
902.90	224.53
903.21	224.52
903.51	224.50
903.82	224.54
904.12	224.54
904.43	224.55
904.73	224.54
905.03	224.55
905.34	224.73
905.64	224.72
905.95	224.72
906.25	224.72
906.56	224.72
906.86	224.71
907.17	224.69
907.47	224.70
907.77	224.69
908.08	224.64
908.38	224.65
908.69	224.66
908.99	224.70
909.30	224.71
909.60	224.71
909.90	224.71
910.21	224.65
910.51	224.63
910.81	224.63
911.12	224.64
911.42	224.64
911.73	224.45
912.03	224.46
912.33	224.49
912.64	224.48
912.94	224.46
913.24	224.44
913.55	224.42
913.85	224.41
914.15	224.44
914.46	224.47
914.76	224.45
915.06	224.44
915.37	224.40
915.67	224.38
915.97	224.38
916.27	224.35
916.58	224.36
916.88	224.36
917.18	224.34
917.49	224.46
917.79	224.46
918.09	224.49
918.39	224.53
918.70	224.52
919.00	224.53
919.30	224.62
919.60	224.61
919.91	224.60
920.21	224.61
920.51	224.57
920.81	224.55
921.12	224.59
921.42	224.58
921.72	224.59
922.02	224.60
922.32	224.62
922.63	224.64
922.93	224.74
923.23	224.75
923.53	224.73
923.83	224.61
924.13	224.62
924.44	224.62
924.74	224.64
925.04	224.68
925.34	224.68
925.64	224.60
925.94	224.60
926.24	224.71
926.55	224.69
926.85	224.72
927.15	224.72
927.45	224.71
927.75	224.72
928.05	224.72
928.35	224.70
928.65	224.73
928.95	224.74
929.26	224.65
929.56	224.69
929.86	224.71
930.16	224.70
930.46	224.68
930.76	224.69
931.06	224.60
931.36	224.55
931.66	224.58
931.96	224.59
932.26	224.61
932.56	224.53
932.86	224.54
933.16	224.54
933.46	224.52
933.76	224.50
934.06	224.53
934.36	224.59
934.66	224.59
934.96	224.56
935.26	224.56
935.56	224.58
935.86	224.53
936.16	224.51
936.46	224.50
936.76	224.49
937.06	224.47
937.36	224.48
937.66	224.49
937.96	224.48
938.26	224.44
938.56	224.43
938.86	224.44
939.16	224.47
939.46	224.49
939.76	224.50
940.06	224.50
940.35	224.46
940.65	224.37
940.95	224.39
941.25	224.34
941.55	224.32
941.85	224.31
942.15	224.35
942.45	224.40
942.75	224.40
943.04	224.40
943.34	224.44
943.64	224.42
943.94	224.40
944.24	224.40
944.54	224.42
944.84	224.41
945.13	224.39
945.43	224.35
945.73	224.34
946.03	224.32
946.33	224.31
946.62	224.30
946.92	224.30
947.22	224.30
947.52	224.32
947.82	224.35
948.11	224.32
948.41	224.28
948.71	224.23
949.01	224.24
949.31	224.22
949.60	224.20
949.90	224.23
950.20	224.23
950.50	224.22
950.79	224.20
951.09	224.23
951.39	224.23
951.69	224.21
951.98	224.25
952.28	224.25
952.58	224.25
952.87	224.25
953.17	224.28
953.47	224.26
953.76	224.25
954.06	224.21
954.36	224.19
954.66	224.19
954.95	224.24
955.25	224.26
955.55	224.27
955.84	224.24
956.14	224.26
956.44	224.27
956.73	224.24
957.03	224.25
957.32	224.25
957.62	224.25
957.92	224.29
958.21	224.26
958.51	224.47
958.81	224.50
959.10	224.52
959.40	224.56
959.69	224.57
959.99	224.60
960.29	224.61
960.58	224.61
960.88	224.68
961.17	224.66
961.47	224.67
961.76	224.65
962.06	224.69
962.36	224.66
962.65	224.67
962.95	224.69
963.24	224.67
963.54	224.67
963.83	224.68
964.13	224.66
964.42	224.65
964.72	224.49
965.01	224.49
965.31	224.48
965.60	224.43
965.90	224.54
966.19	224.50
966.49	224.51
966.78	224.51
967.08	224.49
967.37	224.49
967.67	224.46
967.96	224.49
968.26	224.48
968.55	224.51
968.85	224.50
969.14	224.50
969.43	224.50
969.73	224.48
970.02	224.47
970.32	224.46
970.61	224.44
970.91	224.38
971.20	224.36
971.49	224.34
971.79	224.36
972.08	224.23
972.38	224.25
972.67	224.23
972.96	224.26
973.26	224.22
973.55	224.28
973.85	224.28
974.14	224.25
974.43	224.27
974.73	224.23
975.02	224.22
975.31	224.22
975.61	224.21
975.90	224.20
976.19	224.19
976.49	224.20
976.78	224.21
977.07	224.21
977.37	224.23
977.66	224.25
977.95	224.22
978.24	224.24
978.54	224.28
978.83	224.26
979.12	224.25
979.42	224.25
979.71	224.21
980.00	224.20
980.29	224.21
980.59	224.18
980.88	224.23
981.17	224.23
981.46	224.23
981.76	224.23
982.05	224.28
982.34	224.30
982.63	224.30
982.93	224.30
983.22	224.34
983.51	224.35
983.80	224.37
984.09	224.40
984.39	224.38
984.68	224.35
984.97	224.36
985.26	224.35
985.55	224.37
985.85	224.33
986.14	224.36
986.43	224.38
986.72	224.37
987.01	224.31
987.30	224.32
987.59	224.31
987.89	224.31
988.18	224.26
988.47	224.24
988.76	224.22
989.05	224.20
989.34	224.18
989.63	224.22
989.92	224.19
990.22	224.16
990.51	224.16
990.80	224.14
991.09	224.16
991.38	224.19
991.67	224.16
991.96	224.15
992.25	224.15
992.54	224.11
992.83	224.12
993.12	224.12
993.41	224.15
993.70	224.23
993.99	224.26
994.28	224.29
994.58	224.32
994.87	224.30
995.16	224.30
995.45	224.28
995.74	224.22
996.03	224.25
996.32	224.28
996.61	224.32
996.90	224.32
997.19	224.31
997.48	224.31
997.77	224.29
998.06	224.31
998.34	224.30
998.63	224.30
998.92	224.31
999.21	224.34
999.50	224.34
999.79	224.27
1000.08	224.26
1000.37	224.26
1000.66	224.23
1000.95	224.28
1001.24	224.30
1001.53	224.33
1001.82	224.33
1002.11	224.29
1002.40	224.30
1002.68	224.33
1002.97	224.47
1003.26	224.45
1003.55	224.42
1003.84	224.44
1004.13	224.49
1004.42	224.49
1004.71	224.49
1004.99	224.47
1005.28	224.51
1005.57	224.50
1005.86	224.48
1006.15	224.47
1006.44	224.44
1006.72	224.46
1007.01	224.43
1007.30	224.43
1007.59	224.41
1007.88	224.41
1008.17	224.42
1008.45	224.38
1008.74	224.31
1009.03	224.22
1009.32	224.22
1009.60	224.22
1009.89	224.20
1010.18	224.13
1010.47	224.12
1010.76	224.11
1011.04	224.11
1011.33	224.10
1011.62	224.11
1011.91	224.13
1012.19	224.13
1012.48	224.14
1012.77	224.13
1013.05	224.19
1013.34	224.19
1013.63	224.18
1013.92	224.20
1014.20	224.18
1014.49	224.20
1014.78	224.21
1015.06	224.16
1015.35	224.16
1015.64	224.19
1015.92	224.22
1016.21	224.23
1016.50	224.23
1016.78	224.25
1017.07	224.27
1017.36	224.24
1017.64	224.21
1017.93	224.23
1018.22	224.21
1018.50	224.20
1018.79	224.20
1019.08	224.13
1019.36	224.14
1019.65	224.13
1019.93	224.17
1020.22	224.20
1020.51	224.30
1020.79	224.28
1021.08	223.93
1021.36	223.83
1021.65	224.23
1021.94	224.05
1022.22	224.35
1022.51	223.81
1022.79	225.08
1023.08	224.50
1023.36	226.44
1023.65	223.81
>>>>>End Processed Spectral Data<<<<<
