SpectraSuite Data File
++++++++++++++++++++++++++++++++++++
Date: Tue Oct 06 12:15:37 EDT 2015
User: lab3
Dark Spectrum Present: No
Reference Spectrum Present: No
Number of Sampled Component Spectra: 1
Spectrometers: USB2E7196
Integration Time (usec): 66000 (USB2E7196)
Spectra Averaged: 1000 (USB2E7196)
Boxcar Smoothing: 10 (USB2E7196)
Correct for Electrical Dark: No (USB2E7196)
Strobe/Lamp Enabled: No (USB2E7196)
Correct for Detector Non-linearity: No (USB2E7196)
Correct for Stray Light: No (USB2E7196)
Number of Pixels in Processed Spectrum: 2048
>>>>>Begin Processed Spectral Data<<<<<
339.09	0.00
339.48	216.59
339.86	218.07
340.24	219.55
340.63	220.96
341.01	224.93
341.39	223.61
341.78	225.06
342.16	226.48
342.54	226.68
342.93	215.11
343.31	225.98
343.69	226.53
344.07	227.00
344.46	227.44
344.84	227.85
345.22	228.04
345.60	228.32
345.99	228.53
346.37	228.67
346.75	228.79
347.13	228.88
347.52	228.97
347.90	229.09
348.28	229.14
348.66	229.23
349.05	229.22
349.43	229.30
349.81	229.36
350.19	229.43
350.57	229.51
350.96	229.60
351.34	229.70
351.72	229.81
352.10	229.92
352.48	230.01
352.87	230.06
353.25	230.14
353.63	230.20
354.01	230.26
354.39	230.34
354.77	230.43
355.15	230.55
355.54	230.59
355.92	230.60
356.30	230.67
356.68	230.84
357.06	230.93
357.44	230.96
357.82	231.02
358.20	231.22
358.58	231.28
358.97	231.35
359.35	231.44
359.73	231.53
360.11	231.58
360.49	231.63
360.87	231.68
361.25	231.74
361.63	231.85
362.01	231.91
362.39	231.93
362.77	231.98
363.15	232.00
363.53	232.03
363.91	232.06
364.29	232.10
364.67	231.95
365.05	231.98
365.43	232.02
365.81	232.06
366.19	232.02
366.57	232.09
366.95	232.09
367.33	232.04
367.71	232.04
368.09	232.07
368.47	232.06
368.85	232.05
369.23	232.07
369.61	231.99
369.99	232.02
370.37	232.03
370.75	232.13
371.13	232.10
371.51	232.05
371.89	232.04
372.27	232.03
372.65	232.00
373.03	231.95
373.41	231.90
373.78	231.84
374.16	231.71
374.54	231.61
374.92	231.57
375.30	231.53
375.68	231.45
376.06	231.40
376.44	231.36
376.82	231.31
377.19	231.26
377.57	231.22
377.95	231.11
378.33	231.05
378.71	230.85
379.09	230.80
379.47	230.78
379.84	230.71
380.22	230.64
380.60	230.57
380.98	230.52
381.36	230.48
381.73	230.41
382.11	230.40
382.49	230.37
382.87	230.30
383.25	230.26
383.62	230.42
384.00	230.35
384.38	230.31
384.76	230.30
385.13	230.32
385.51	230.29
385.89	230.23
386.27	230.20
386.64	230.19
387.02	230.14
387.40	230.10
387.78	230.09
388.15	230.07
388.53	230.04
388.91	230.01
389.29	229.97
389.66	229.98
390.04	229.93
390.42	229.95
390.79	229.95
391.17	229.93
391.55	229.73
391.92	229.72
392.30	229.73
392.68	229.69
393.05	229.66
393.43	229.67
393.81	229.68
394.18	229.66
394.56	229.67
394.94	229.72
395.31	229.72
395.69	229.78
396.06	229.82
396.44	229.86
396.82	229.89
397.19	230.01
397.57	230.03
397.95	230.10
398.32	230.08
398.70	230.15
399.07	230.26
399.45	230.31
399.82	230.38
400.20	230.44
400.58	230.52
400.95	230.54
401.33	230.66
401.70	230.89
402.08	231.03
402.45	231.15
402.83	231.32
403.20	231.49
403.58	231.61
403.95	231.83
404.33	232.04
404.71	232.24
405.08	232.54
405.46	232.80
405.83	233.06
406.21	233.35
406.58	233.67
406.96	233.97
407.33	234.33
407.70	234.74
408.08	235.30
408.45	235.79
408.83	236.32
409.20	236.81
409.58	237.25
409.95	237.86
410.33	238.51
410.70	239.13
411.08	239.87
411.45	240.64
411.82	241.43
412.20	242.33
412.57	243.40
412.95	244.26
413.32	245.36
413.69	246.50
414.07	247.73
414.44	249.06
414.82	250.43
415.19	252.03
415.56	253.65
415.94	255.33
416.31	257.22
416.68	259.12
417.06	261.32
417.43	263.40
417.81	265.77
418.18	268.20
418.55	270.84
418.93	273.60
419.30	276.49
419.67	279.54
420.04	282.69
420.42	285.99
420.79	289.78
421.16	293.63
421.54	297.51
421.91	301.58
422.28	305.80
422.66	310.34
423.03	314.66
423.40	319.20
423.77	324.03
424.15	329.01
424.52	334.15
424.89	339.73
425.26	345.25
425.64	350.39
426.01	356.15
426.38	362.06
426.75	368.12
427.13	374.32
427.50	380.81
427.87	387.52
428.24	394.28
428.61	400.77
428.99	407.76
429.36	415.49
429.73	422.88
430.10	430.22
430.47	437.75
430.85	445.53
431.22	453.83
431.59	462.36
431.96	470.66
432.33	479.89
432.70	488.70
433.08	499.15
433.45	508.99
433.82	518.63
434.19	529.44
434.56	540.08
434.93	550.39
435.30	560.62
435.68	572.25
436.05	583.59
436.42	594.95
436.79	605.32
437.16	616.48
437.53	628.51
437.90	640.56
438.27	652.34
438.64	665.00
439.01	676.53
439.38	687.20
439.75	697.44
440.13	709.09
440.50	720.18
440.87	728.96
441.24	738.63
441.61	749.27
441.98	757.08
442.35	766.30
442.72	775.79
443.09	784.87
443.46	790.83
443.83	795.25
444.20	798.86
444.57	804.23
444.94	807.49
445.31	810.70
445.68	813.41
446.05	815.39
446.42	815.04
446.79	814.49
447.16	813.95
447.53	813.60
447.90	810.13
448.27	806.69
448.64	801.45
449.01	797.91
449.37	790.54
449.74	783.93
450.11	775.34
450.48	765.81
450.85	756.22
451.22	747.84
451.59	739.74
451.96	732.53
452.33	722.01
452.70	712.56
453.07	701.14
453.43	689.80
453.80	678.77
454.17	668.22
454.54	658.37
454.91	647.25
455.28	636.71
455.65	626.72
456.02	616.29
456.38	607.86
456.75	596.98
457.12	588.19
457.49	579.29
457.86	570.97
458.23	563.66
458.59	555.56
458.96	547.32
459.33	540.06
459.70	532.63
460.07	526.87
460.43	520.14
460.80	513.85
461.17	508.34
461.54	502.46
461.91	496.93
462.27	491.32
462.64	486.75
463.01	481.51
463.38	476.34
463.74	471.62
464.11	467.43
464.48	463.70
464.85	459.61
465.21	456.46
465.58	452.97
465.95	449.00
466.32	445.81
466.68	442.69
467.05	439.55
467.42	436.51
467.78	433.24
468.15	430.25
468.52	428.07
468.88	425.20
469.25	422.56
469.62	420.46
469.98	418.15
470.35	416.09
470.72	414.24
471.08	412.33
471.45	410.74
471.82	408.95
472.18	407.07
472.55	405.87
472.92	404.39
473.28	403.20
473.65	401.94
474.02	400.81
474.38	399.82
474.75	399.23
475.11	398.37
475.48	397.99
475.85	397.58
476.21	397.32
476.58	397.18
476.94	397.37
477.31	397.41
477.67	397.55
478.04	397.86
478.41	398.27
478.77	398.88
479.14	399.24
479.50	400.01
479.87	400.99
480.23	401.95
480.60	402.89
480.96	403.84
481.33	405.24
481.69	406.62
482.06	407.99
482.42	409.28
482.79	410.86
483.15	412.73
483.52	414.82
483.88	416.85
484.25	419.00
484.61	421.23
484.98	423.64
485.34	426.35
485.71	429.13
486.07	432.13
486.44	435.07
486.80	438.39
487.17	441.76
487.53	445.47
487.90	449.34
488.26	453.57
488.62	458.01
488.99	462.48
489.35	467.20
489.72	472.28
490.08	477.60
490.44	483.02
490.81	488.60
491.17	494.33
491.54	500.43
491.90	506.69
492.26	513.37
492.63	520.37
492.99	527.62
493.36	535.17
493.72	543.09
494.08	551.15
494.45	559.63
494.81	568.53
495.17	577.61
495.54	587.21
495.90	597.19
496.26	607.43
496.63	617.89
496.99	628.70
497.35	639.98
497.72	651.58
498.08	663.65
498.44	676.01
498.80	689.15
499.17	702.61
499.53	716.51
499.89	730.76
500.26	745.08
500.62	759.71
500.98	775.00
501.34	790.50
501.71	806.71
502.07	823.17
502.43	840.11
502.79	857.13
503.16	874.61
503.52	892.37
503.88	910.59
504.24	929.26
504.60	948.20
504.97	967.54
505.33	987.34
505.69	1008.08
506.05	1028.88
506.41	1049.59
506.78	1070.58
507.14	1092.34
507.50	1114.61
507.86	1137.33
508.22	1160.13
508.59	1182.77
508.95	1206.19
509.31	1230.10
509.67	1254.67
510.03	1279.03
510.39	1303.86
510.75	1328.69
511.12	1353.61
511.48	1378.47
511.84	1403.39
512.20	1428.75
512.56	1454.53
512.92	1480.17
513.28	1505.46
513.64	1531.08
514.00	1556.76
514.37	1582.65
514.73	1608.27
515.09	1633.38
515.45	1658.73
515.81	1684.16
516.17	1709.69
516.53	1734.55
516.89	1759.33
517.25	1784.14
517.61	1808.84
517.97	1833.69
518.33	1858.13
518.69	1882.37
519.05	1906.85
519.41	1931.29
519.77	1955.62
520.13	1979.67
520.49	2003.45
520.85	2027.29
521.21	2051.02
521.57	2074.87
521.93	2097.64
522.29	2120.84
522.65	2143.57
523.01	2166.10
523.37	2187.80
523.73	2209.89
524.09	2232.04
524.45	2254.23
524.81	2275.51
525.17	2296.61
525.53	2317.03
525.89	2337.70
526.25	2358.04
526.61	2377.26
526.97	2396.55
527.33	2415.28
527.68	2433.23
528.04	2450.59
528.40	2466.92
528.76	2483.73
529.12	2499.40
529.48	2515.46
529.84	2530.21
530.20	2546.02
530.56	2560.77
530.91	2575.47
531.27	2589.13
531.63	2601.85
531.99	2614.22
532.35	2625.19
532.71	2636.14
533.07	2647.28
533.42	2656.92
533.78	2667.29
534.14	2677.80
534.50	2687.05
534.86	2696.49
535.21	2703.93
535.57	2711.48
535.93	2719.39
536.29	2726.16
536.65	2733.12
537.00	2738.03
537.36	2743.41
537.72	2747.02
538.08	2750.30
538.44	2752.72
538.79	2755.51
539.15	2757.71
539.51	2759.36
539.87	2761.60
540.22	2761.76
540.58	2762.45
540.94	2762.73
541.29	2761.59
541.65	2758.97
542.01	2756.35
542.37	2752.74
542.72	2750.82
543.08	2747.56
543.44	2744.13
543.79	2738.87
544.15	2733.54
544.51	2729.02
544.87	2722.58
545.22	2715.61
545.58	2708.81
545.94	2702.78
546.29	2695.05
546.65	2686.64
547.01	2678.25
547.36	2669.48
547.72	2660.70
548.07	2650.77
548.43	2640.69
548.79	2629.52
549.14	2619.36
549.50	2609.02
549.86	2598.13
550.21	2585.40
550.57	2573.94
550.92	2560.86
551.28	2548.50
551.64	2536.30
551.99	2524.13
552.35	2512.05
552.70	2499.70
553.06	2487.79
553.41	2474.67
553.77	2461.25
554.13	2448.04
554.48	2434.09
554.84	2419.65
555.19	2406.12
555.55	2391.79
555.90	2377.66
556.26	2364.45
556.61	2350.52
556.97	2335.64
557.32	2321.06
557.68	2306.77
558.03	2292.00
558.39	2277.88
558.74	2264.02
559.10	2248.19
559.45	2232.88
559.81	2218.21
560.16	2203.27
560.52	2188.03
560.87	2173.64
561.23	2158.73
561.58	2144.23
561.94	2128.99
562.29	2113.92
562.64	2098.81
563.00	2083.80
563.35	2069.37
563.71	2054.71
564.06	2039.70
564.42	2025.23
564.77	2010.83
565.12	1996.83
565.48	1982.69
565.83	1968.27
566.19	1953.93
566.54	1940.09
566.89	1925.08
567.25	1909.71
567.60	1895.50
567.96	1880.67
568.31	1865.26
568.66	1850.76
569.02	1836.24
569.37	1821.87
569.72	1807.83
570.08	1793.61
570.43	1779.38
570.78	1764.37
571.14	1749.37
571.49	1734.79
571.84	1720.96
572.20	1705.88
572.55	1690.98
572.90	1675.60
573.26	1660.31
573.61	1644.72
573.96	1629.78
574.31	1615.49
574.67	1601.58
575.02	1586.86
575.37	1571.91
575.72	1556.89
576.08	1542.17
576.43	1527.57
576.78	1513.03
577.13	1498.56
577.49	1484.13
577.84	1469.61
578.19	1455.30
578.54	1441.06
578.90	1426.70
579.25	1411.83
579.60	1398.16
579.95	1384.42
580.30	1370.85
580.66	1357.38
581.01	1344.04
581.36	1330.59
581.71	1317.03
582.06	1303.59
582.42	1290.34
582.77	1277.41
583.12	1264.79
583.47	1252.09
583.82	1239.42
584.17	1226.79
584.53	1214.16
584.88	1201.93
585.23	1189.52
585.58	1177.36
585.93	1165.24
586.28	1153.69
586.63	1142.05
586.98	1130.30
587.34	1118.89
587.69	1107.30
588.04	1096.00
588.39	1084.89
588.74	1073.68
589.09	1062.84
589.44	1051.55
589.79	1040.74
590.14	1030.12
590.49	1019.55
590.84	1009.24
591.19	999.03
591.54	988.85
591.89	978.52
592.25	968.18
592.60	957.85
592.95	947.78
593.30	937.74
593.65	927.61
594.00	917.79
594.35	908.58
594.70	898.91
595.05	889.89
595.40	880.74
595.75	871.42
596.10	862.57
596.45	853.62
596.80	845.01
597.15	836.40
597.50	827.83
597.85	819.61
598.19	811.29
598.54	803.02
598.89	794.88
599.24	787.12
599.59	779.46
599.94	772.28
600.29	764.87
600.64	757.57
600.99	750.28
601.34	743.19
601.69	735.50
602.04	728.44
602.39	721.48
602.74	714.71
603.08	708.05
603.43	701.42
603.78	694.90
604.13	688.49
604.48	682.07
604.83	675.88
605.18	669.67
605.53	663.60
605.87	657.40
606.22	651.48
606.57	645.51
606.92	639.41
607.27	633.47
607.62	627.89
607.96	622.39
608.31	617.15
608.66	611.78
609.01	606.67
609.36	601.79
609.70	596.76
610.05	591.68
610.40	586.75
610.75	581.75
611.10	577.07
611.44	572.34
611.79	567.73
612.14	563.07
612.49	558.43
612.83	553.99
613.18	549.81
613.53	545.61
613.88	541.45
614.22	537.54
614.57	533.48
614.92	529.44
615.27	525.54
615.61	521.63
615.96	517.85
616.31	514.09
616.65	510.31
617.00	506.64
617.35	503.09
617.70	499.61
618.04	496.28
618.39	492.87
618.74	489.61
619.08	486.27
619.43	483.03
619.78	479.90
620.12	476.80
620.47	473.81
620.82	470.83
621.16	467.96
621.51	465.19
621.85	462.47
622.20	459.84
622.55	457.18
622.89	454.57
623.24	452.08
623.59	449.63
623.93	447.20
624.28	444.89
624.62	442.77
624.97	440.65
625.32	438.37
625.66	436.08
626.01	433.84
626.35	431.83
626.70	429.73
627.04	427.81
627.39	425.78
627.73	423.80
628.08	421.92
628.43	420.06
628.77	418.18
629.12	416.43
629.46	414.64
629.81	412.96
630.15	411.21
630.50	409.49
630.84	407.83
631.19	406.26
631.53	404.72
631.88	402.98
632.22	401.32
632.57	400.00
632.91	398.68
633.26	397.39
633.60	396.03
633.95	394.77
634.29	393.36
634.64	392.07
634.98	390.63
635.32	389.35
635.67	388.17
636.01	386.96
636.36	385.80
636.70	384.72
637.05	383.53
637.39	382.49
637.73	381.41
638.08	380.40
638.42	379.36
638.77	378.21
639.11	377.06
639.45	376.01
639.80	374.88
640.14	373.80
640.49	372.69
640.83	371.62
641.17	370.55
641.52	369.53
641.86	368.55
642.20	367.75
642.55	366.74
642.89	365.76
643.23	364.80
643.58	363.95
643.92	362.98
644.26	362.06
644.61	361.21
644.95	360.32
645.29	359.40
645.64	358.48
645.98	357.61
646.32	356.84
646.66	355.99
647.01	355.12
647.35	354.34
647.69	353.56
648.04	352.80
648.38	352.02
648.72	351.27
649.06	350.56
649.41	349.77
649.75	349.03
650.09	348.34
650.43	347.64
650.78	346.88
651.12	346.15
651.46	345.45
651.80	344.75
652.14	344.06
652.49	343.41
652.83	342.72
653.17	342.06
653.51	341.41
653.85	340.84
654.20	340.24
654.54	339.55
654.88	338.89
655.22	338.29
655.56	337.61
655.90	336.95
656.25	336.28
656.59	335.63
656.93	335.06
657.27	334.49
657.61	333.85
657.95	333.28
658.29	332.70
658.64	332.19
658.98	331.60
659.32	331.03
659.66	330.47
660.00	329.93
660.34	329.38
660.68	328.80
661.02	328.16
661.36	327.56
661.70	327.02
662.05	326.50
662.39	326.00
662.73	325.57
663.07	325.16
663.41	324.68
663.75	324.17
664.09	323.64
664.43	323.06
664.77	322.57
665.11	321.99
665.45	321.45
665.79	320.90
666.13	320.36
666.47	319.81
666.81	319.25
667.15	318.67
667.49	318.19
667.83	317.76
668.17	317.32
668.51	316.87
668.85	316.44
669.19	316.06
669.53	315.53
669.87	315.02
670.21	314.52
670.55	314.06
670.89	313.69
671.23	313.26
671.57	312.81
671.91	312.42
672.25	312.04
672.58	311.68
672.92	311.23
673.26	310.83
673.60	310.42
673.94	310.02
674.28	309.67
674.62	309.28
674.96	308.83
675.30	308.42
675.64	307.99
675.97	307.53
676.31	307.03
676.65	306.59
676.99	306.23
677.33	305.76
677.67	305.32
678.01	304.78
678.34	304.34
678.68	303.92
679.02	303.45
679.36	303.01
679.70	302.54
680.04	302.11
680.37	301.69
680.71	301.27
681.05	300.88
681.39	300.42
681.73	299.93
682.06	299.47
682.40	299.04
682.74	298.67
683.08	298.32
683.42	297.87
683.75	297.47
684.09	296.94
684.43	296.50
684.77	296.05
685.10	295.65
685.44	295.26
685.78	294.84
686.12	294.43
686.45	293.99
686.79	293.53
687.13	293.12
687.46	292.65
687.80	292.22
688.14	291.70
688.48	291.27
688.81	290.85
689.15	290.50
689.49	290.03
689.82	289.55
690.16	289.01
690.50	288.58
690.83	288.14
691.17	287.69
691.51	287.27
691.84	286.88
692.18	286.44
692.52	285.97
692.85	285.54
693.19	285.17
693.52	284.76
693.86	284.37
694.20	283.94
694.53	283.55
694.87	283.09
695.21	282.67
695.54	282.24
695.88	281.78
696.21	281.27
696.55	280.85
696.88	280.43
697.22	280.02
697.56	279.62
697.89	279.16
698.23	278.75
698.56	278.30
698.90	277.89
699.23	277.44
699.57	277.03
699.90	276.58
700.24	276.08
700.58	275.68
700.91	275.30
701.25	275.06
701.58	274.73
701.92	274.41
702.25	274.06
702.59	273.67
702.92	273.29
703.26	272.92
703.59	272.53
703.93	272.30
704.26	271.94
704.60	271.54
704.93	271.15
705.26	270.75
705.60	270.40
705.93	269.97
706.27	269.66
706.60	269.35
706.94	269.04
707.27	268.65
707.61	268.27
707.94	267.87
708.27	267.35
708.61	266.91
708.94	266.49
709.28	266.12
709.61	265.76
709.94	265.44
710.28	265.14
710.61	264.84
710.95	264.36
711.28	264.14
711.61	263.82
711.95	263.54
712.28	263.21
712.61	262.87
712.95	262.64
713.28	262.39
713.61	262.03
713.95	261.68
714.28	261.39
714.61	261.07
714.95	260.77
715.28	260.46
715.61	260.16
715.95	259.89
716.28	259.59
716.61	259.33
716.95	259.00
717.28	258.67
717.61	258.35
717.94	258.06
718.28	257.65
718.61	257.35
718.94	257.05
719.27	256.78
719.61	256.54
719.94	256.26
720.27	255.90
720.60	255.65
720.94	255.39
721.27	255.15
721.60	254.92
721.93	254.66
722.27	254.47
722.60	254.24
722.93	253.96
723.26	253.72
723.59	253.47
723.93	253.27
724.26	253.06
724.59	252.83
724.92	252.62
725.25	252.46
725.59	252.25
725.92	252.06
726.25	251.84
726.58	251.63
726.91	251.38
727.24	251.19
727.57	250.96
727.91	250.73
728.24	250.54
728.57	250.32
728.90	250.15
729.23	249.89
729.56	249.78
729.89	249.58
730.22	249.38
730.55	249.19
730.89	248.98
731.22	248.77
731.55	248.59
731.88	248.40
732.21	248.17
732.54	247.96
732.87	247.78
733.20	247.60
733.53	247.43
733.86	247.27
734.19	247.07
734.52	246.93
734.85	246.87
735.18	246.68
735.51	246.57
735.84	246.41
736.17	246.29
736.50	246.03
736.83	246.08
737.16	245.92
737.49	245.76
737.82	245.59
738.15	245.46
738.48	245.30
738.81	245.13
739.14	244.96
739.47	244.81
739.80	244.65
740.13	244.51
740.46	244.32
740.79	244.14
741.12	244.00
741.45	243.83
741.78	243.60
742.11	243.50
742.44	243.30
742.77	243.16
743.10	242.99
743.43	242.85
743.75	242.52
744.08	242.65
744.41	242.49
744.74	242.35
745.07	242.18
745.40	242.09
745.73	242.02
746.06	241.91
746.39	241.81
746.71	241.66
747.04	241.52
747.37	241.39
747.70	241.30
748.03	241.17
748.36	241.07
748.68	240.94
749.01	240.78
749.34	240.67
749.67	240.55
750.00	240.45
750.33	240.47
750.65	240.38
750.98	240.00
751.31	239.90
751.64	239.80
751.97	239.78
752.29	239.64
752.62	239.45
752.95	239.32
753.28	239.19
753.60	239.07
753.93	239.00
754.26	238.91
754.59	238.75
754.91	238.62
755.24	238.49
755.57	238.46
755.90	238.34
756.22	238.21
756.55	238.07
756.88	237.92
757.20	237.71
757.53	237.55
757.86	237.45
758.19	237.36
758.51	237.25
758.84	237.08
759.17	236.96
759.49	236.88
759.82	236.88
760.15	236.80
760.47	236.71
760.80	236.59
761.13	236.53
761.45	236.44
761.78	236.37
762.11	236.28
762.43	236.12
762.76	236.04
763.08	235.98
763.41	235.92
763.74	235.85
764.06	235.76
764.39	235.69
764.71	235.60
765.04	235.52
765.37	235.44
765.69	235.35
766.02	235.29
766.34	235.20
766.67	235.06
767.00	235.01
767.32	235.04
767.65	235.07
767.97	234.99
768.30	234.94
768.62	234.87
768.95	234.79
769.27	234.72
769.60	234.69
769.92	234.61
770.25	234.52
770.57	234.43
770.90	234.38
771.22	234.32
771.55	234.28
771.87	234.23
772.20	234.16
772.52	234.28
772.85	234.43
773.17	234.38
773.50	234.34
773.82	234.27
774.15	234.11
774.47	233.95
774.80	233.89
775.12	233.83
775.45	233.80
775.77	233.76
776.09	233.73
776.42	233.69
776.74	233.71
777.07	233.67
777.39	233.64
777.72	233.59
778.04	233.57
778.36	233.52
778.69	233.47
779.01	233.44
779.33	233.24
779.66	233.00
779.98	232.95
780.31	232.91
780.63	232.95
780.95	232.95
781.28	232.91
781.60	232.85
781.92	232.81
782.25	232.77
782.57	232.74
782.89	232.69
783.22	232.63
783.54	232.56
783.86	232.55
784.19	232.51
784.51	232.52
784.83	232.47
785.16	232.44
785.48	232.41
785.80	232.39
786.12	232.37
786.45	232.34
786.77	232.34
787.09	232.30
787.42	232.20
787.74	232.18
788.06	232.18
788.38	232.15
788.71	232.12
789.03	232.10
789.35	232.09
789.67	232.05
789.99	232.05
790.32	231.99
790.64	231.97
790.96	232.11
791.28	232.02
791.61	232.00
791.93	231.98
792.25	231.95
792.57	232.04
792.89	231.99
793.21	231.98
793.54	231.94
793.86	231.91
794.18	231.89
794.50	231.84
794.82	231.81
795.14	231.82
795.47	231.82
795.79	231.79
796.11	231.73
796.43	231.70
796.75	231.67
797.07	231.66
797.39	231.63
797.71	231.47
798.04	231.47
798.36	231.45
798.68	231.43
799.00	231.41
799.32	231.31
799.64	231.33
799.96	231.30
800.28	231.31
800.60	231.29
800.92	231.28
801.24	231.25
801.56	231.23
801.89	231.20
802.21	231.18
802.53	231.13
802.85	231.16
803.17	231.23
803.49	231.17
803.81	231.14
804.13	231.11
804.45	231.07
804.77	231.06
805.09	231.03
805.41	230.99
805.73	230.94
806.05	230.88
806.37	230.85
806.69	230.82
807.01	230.78
807.33	230.77
807.65	230.70
807.97	230.77
808.28	230.73
808.60	230.70
808.92	230.67
809.24	230.77
809.56	230.72
809.88	230.64
810.20	230.64
810.52	230.67
810.84	230.63
811.16	230.60
811.48	230.57
811.80	230.63
812.12	230.61
812.43	230.65
812.75	230.65
813.07	230.62
813.39	230.61
813.71	230.59
814.03	230.57
814.35	230.56
814.67	230.48
814.98	230.47
815.30	230.46
815.62	230.42
815.94	230.29
816.26	230.30
816.58	230.26
816.89	230.27
817.21	230.20
817.53	230.21
817.85	230.21
818.17	230.20
818.48	230.13
818.80	230.14
819.12	230.09
819.44	230.05
819.76	230.03
820.07	230.02
820.39	230.01
820.71	230.02
821.03	230.01
821.34	229.98
821.66	229.99
821.98	230.00
822.30	229.99
822.61	230.10
822.93	230.06
823.25	230.04
823.57	230.02
823.88	230.03
824.20	230.01
824.52	230.04
824.83	230.03
825.15	230.00
825.47	230.00
825.79	230.00
826.10	229.99
826.42	229.97
826.74	229.97
827.05	229.96
827.37	229.95
827.69	229.93
828.00	229.93
828.32	229.92
828.64	229.88
828.95	229.97
829.27	229.90
829.58	229.88
829.90	229.91
830.22	229.91
830.53	229.87
830.85	229.85
831.17	229.80
831.48	229.79
831.80	229.79
832.11	229.77
832.43	229.74
832.75	229.74
833.06	229.84
833.38	229.79
833.69	229.77
834.01	229.77
834.32	229.75
834.64	229.74
834.96	229.73
835.27	229.74
835.59	229.66
835.90	229.63
836.22	229.62
836.53	229.57
836.85	229.55
837.16	229.72
837.48	229.72
837.79	229.77
838.11	229.76
838.42	229.75
838.74	229.76
839.05	229.75
839.37	229.73
839.68	229.62
840.00	229.61
840.31	229.63
840.63	229.61
840.94	229.60
841.26	229.57
841.57	229.55
841.88	229.56
842.20	229.55
842.51	229.53
842.83	229.53
843.14	229.70
843.46	229.68
843.77	229.58
844.08	229.57
844.40	229.51
844.71	229.48
845.03	229.47
845.34	229.46
845.65	229.44
845.97	229.45
846.28	229.45
846.60	229.47
846.91	229.44
847.22	229.43
847.54	229.48
847.85	229.49
848.16	229.47
848.48	229.43
848.79	229.49
849.10	229.50
849.42	229.50
849.73	229.33
850.04	229.33
850.36	229.27
850.67	229.30
850.98	229.31
851.30	229.33
851.61	229.32
851.92	229.31
852.23	229.36
852.55	229.36
852.86	229.36
853.17	229.36
853.49	229.40
853.80	229.44
854.11	229.44
854.42	229.46
854.74	229.44
855.05	229.45
855.36	229.36
855.67	229.36
855.99	229.35
856.30	229.55
856.61	229.54
856.92	229.54
857.23	229.54
857.55	229.52
857.86	229.50
858.17	229.52
858.48	229.49
858.79	229.46
859.11	229.47
859.42	229.46
859.73	229.43
860.04	229.42
860.35	229.36
860.66	229.30
860.98	229.29
861.29	229.32
861.60	229.30
861.91	229.34
862.22	229.31
862.53	229.28
862.84	229.08
863.16	229.12
863.47	229.09
863.78	229.06
864.09	229.07
864.40	229.08
864.71	229.09
865.02	229.12
865.33	229.10
865.64	229.06
865.95	229.07
866.27	229.18
866.58	229.15
866.89	229.17
867.20	229.17
867.51	229.14
867.82	229.12
868.13	229.18
868.44	229.14
868.75	229.17
869.06	229.18
869.37	229.20
869.68	229.15
869.99	229.18
870.30	229.20
870.61	229.21
870.92	229.18
871.23	229.15
871.54	229.17
871.85	229.22
872.16	229.24
872.47	229.22
872.78	229.11
873.09	229.14
873.40	229.13
873.71	229.15
874.02	229.17
874.33	229.16
874.64	229.12
874.95	229.15
875.26	229.11
875.56	229.10
875.87	229.09
876.18	229.08
876.49	229.26
876.80	229.25
877.11	229.22
877.42	229.23
877.73	229.24
878.04	229.20
878.35	229.19
878.66	229.19
878.96	229.19
879.27	229.19
879.58	229.17
879.89	229.16
880.20	229.19
880.51	229.19
880.82	229.18
881.12	229.20
881.43	229.17
881.74	229.14
882.05	229.14
882.36	229.14
882.67	229.15
882.97	228.96
883.28	228.93
883.59	228.93
883.90	228.93
884.21	228.95
884.51	228.94
884.82	228.92
885.13	228.91
885.44	228.91
885.74	228.92
886.05	228.91
886.36	228.92
886.67	228.85
886.98	228.94
887.28	228.95
887.59	228.96
887.90	228.96
888.20	228.97
888.51	229.00
888.82	228.97
889.13	228.98
889.43	229.13
889.74	229.13
890.05	229.12
890.35	229.11
890.66	229.08
890.97	229.07
891.28	229.05
891.58	229.05
891.89	229.05
892.20	229.02
892.50	229.01
892.81	228.99
893.12	229.00
893.42	228.90
893.73	228.89
894.04	228.88
894.34	228.89
894.65	228.89
894.95	228.87
895.26	228.88
895.57	228.96
895.87	228.78
896.18	228.81
896.48	228.82
896.79	228.83
897.10	228.87
897.40	228.88
897.71	228.90
898.01	228.89
898.32	228.91
898.63	228.91
898.93	228.92
899.24	228.92
899.54	228.91
899.85	228.91
900.15	228.90
900.46	228.89
900.76	228.91
901.07	228.91
901.38	228.90
901.68	228.92
901.99	228.82
902.29	228.84
902.60	228.83
902.90	228.80
903.21	228.78
903.51	228.76
903.82	228.79
904.12	228.79
904.43	228.80
904.73	228.79
905.03	228.80
905.34	228.96
905.64	228.96
905.95	228.95
906.25	228.95
906.56	228.94
906.86	228.95
907.17	228.92
907.47	228.93
907.77	228.92
908.08	228.87
908.38	228.88
908.69	228.87
908.99	228.89
909.30	228.91
909.60	228.91
909.90	228.90
910.21	228.86
910.51	228.82
910.81	228.83
911.12	228.83
911.42	228.84
911.73	228.66
912.03	228.68
912.33	228.72
912.64	228.72
912.94	228.70
913.24	228.67
913.55	228.65
913.85	228.64
914.15	228.68
914.46	228.71
914.76	228.70
915.06	228.70
915.37	228.67
915.67	228.65
915.97	228.65
916.27	228.63
916.58	228.63
916.88	228.63
917.18	228.61
917.49	228.72
917.79	228.71
918.09	228.72
918.39	228.76
918.70	228.74
919.00	228.75
919.30	228.83
919.60	228.83
919.91	228.81
920.21	228.81
920.51	228.76
920.81	228.75
921.12	228.77
921.42	228.76
921.72	228.76
922.02	228.77
922.32	228.80
922.63	228.81
922.93	228.91
923.23	228.92
923.53	228.90
923.83	228.78
924.13	228.80
924.44	228.80
924.74	228.81
925.04	228.84
925.34	228.84
925.64	228.77
925.94	228.77
926.24	228.88
926.55	228.88
926.85	228.92
927.15	228.92
927.45	228.92
927.75	228.92
928.05	228.94
928.35	228.92
928.65	228.94
928.95	228.94
929.26	228.86
929.56	228.88
929.86	228.91
930.16	228.91
930.46	228.88
930.76	228.88
931.06	228.81
931.36	228.77
931.66	228.78
931.96	228.81
932.26	228.83
932.56	228.74
932.86	228.75
933.16	228.73
933.46	228.72
933.76	228.69
934.06	228.72
934.36	228.76
934.66	228.76
934.96	228.74
935.26	228.77
935.56	228.80
935.86	228.77
936.16	228.74
936.46	228.73
936.76	228.73
937.06	228.71
937.36	228.71
937.66	228.72
937.96	228.71
938.26	228.67
938.56	228.66
938.86	228.66
939.16	228.70
939.46	228.72
939.76	228.73
940.06	228.73
940.35	228.71
940.65	228.62
940.95	228.64
941.25	228.59
941.55	228.57
941.85	228.54
942.15	228.57
942.45	228.63
942.75	228.63
943.04	228.63
943.34	228.67
943.64	228.65
943.94	228.63
944.24	228.63
944.54	228.64
944.84	228.63
945.13	228.61
945.43	228.58
945.73	228.58
946.03	228.57
946.33	228.56
946.62	228.54
946.92	228.54
947.22	228.55
947.52	228.57
947.82	228.58
948.11	228.57
948.41	228.53
948.71	228.48
949.01	228.50
949.31	228.48
949.60	228.48
949.90	228.51
950.20	228.52
950.50	228.51
950.79	228.50
951.09	228.53
951.39	228.52
951.69	228.50
951.98	228.53
952.28	228.54
952.58	228.53
952.87	228.54
953.17	228.57
953.47	228.54
953.76	228.54
954.06	228.50
954.36	228.47
954.66	228.47
954.95	228.51
955.25	228.52
955.55	228.54
955.84	228.50
956.14	228.52
956.44	228.52
956.73	228.50
957.03	228.52
957.32	228.52
957.62	228.52
957.92	228.57
958.21	228.54
958.51	228.73
958.81	228.76
959.10	228.77
959.40	228.81
959.69	228.81
959.99	228.83
960.29	228.84
960.58	228.84
960.88	228.91
961.17	228.89
961.47	228.91
961.76	228.89
962.06	228.91
962.36	228.89
962.65	228.89
962.95	228.91
963.24	228.88
963.54	228.88
963.83	228.89
964.13	228.87
964.42	228.86
964.72	228.71
965.01	228.71
965.31	228.70
965.60	228.64
965.90	228.76
966.19	228.72
966.49	228.73
966.78	228.73
967.08	228.70
967.37	228.70
967.67	228.66
967.96	228.69
968.26	228.68
968.55	228.71
968.85	228.71
969.14	228.70
969.43	228.70
969.73	228.69
970.02	228.67
970.32	228.65
970.61	228.63
970.91	228.58
971.20	228.56
971.49	228.54
971.79	228.57
972.08	228.44
972.38	228.47
972.67	228.46
972.96	228.50
973.26	228.46
973.55	228.52
973.85	228.50
974.14	228.49
974.43	228.50
974.73	228.47
975.02	228.46
975.31	228.46
975.61	228.45
975.90	228.44
976.19	228.43
976.49	228.46
976.78	228.47
977.07	228.48
977.37	228.49
977.66	228.51
977.95	228.48
978.24	228.48
978.54	228.52
978.83	228.51
979.12	228.49
979.42	228.49
979.71	228.45
980.00	228.45
980.29	228.46
980.59	228.42
980.88	228.47
981.17	228.47
981.46	228.48
981.76	228.48
982.05	228.53
982.34	228.54
982.63	228.55
982.93	228.55
983.22	228.58
983.51	228.61
983.80	228.63
984.09	228.65
984.39	228.64
984.68	228.62
984.97	228.63
985.26	228.62
985.55	228.64
985.85	228.60
986.14	228.65
986.43	228.66
986.72	228.66
987.01	228.61
987.30	228.60
987.59	228.58
987.89	228.59
988.18	228.54
988.47	228.53
988.76	228.51
989.05	228.49
989.34	228.47
989.63	228.51
989.92	228.48
990.22	228.46
990.51	228.47
990.80	228.47
991.09	228.48
991.38	228.50
991.67	228.48
991.96	228.48
992.25	228.47
992.54	228.43
992.83	228.44
993.12	228.43
993.41	228.45
993.70	228.53
993.99	228.56
994.28	228.59
994.58	228.62
994.87	228.61
995.16	228.61
995.45	228.60
995.74	228.53
996.03	228.55
996.32	228.57
996.61	228.60
996.90	228.60
997.19	228.59
997.48	228.58
997.77	228.57
998.06	228.58
998.34	228.56
998.63	228.57
998.92	228.58
999.21	228.61
999.50	228.61
999.79	228.55
1000.08	228.54
1000.37	228.53
1000.66	228.50
1000.95	228.54
1001.24	228.56
1001.53	228.58
1001.82	228.58
1002.11	228.54
1002.40	228.55
1002.68	228.59
1002.97	228.72
1003.26	228.70
1003.55	228.67
1003.84	228.69
1004.13	228.74
1004.42	228.75
1004.71	228.75
1004.99	228.74
1005.28	228.77
1005.57	228.75
1005.86	228.74
1006.15	228.72
1006.44	228.69
1006.72	228.70
1007.01	228.67
1007.30	228.67
1007.59	228.65
1007.88	228.64
1008.17	228.66
1008.45	228.62
1008.74	228.54
1009.03	228.44
1009.32	228.45
1009.60	228.45
1009.89	228.43
1010.18	228.36
1010.47	228.35
1010.76	228.34
1011.04	228.32
1011.33	228.32
1011.62	228.33
1011.91	228.35
1012.19	228.36
1012.48	228.36
1012.77	228.36
1013.05	228.41
1013.34	228.40
1013.63	228.40
1013.92	228.42
1014.20	228.40
1014.49	228.41
1014.78	228.43
1015.06	228.37
1015.35	228.36
1015.64	228.39
1015.92	228.42
1016.21	228.43
1016.50	228.44
1016.78	228.45
1017.07	228.48
1017.36	228.43
1017.64	228.41
1017.93	228.42
1018.22	228.40
1018.50	228.40
1018.79	228.38
1019.08	228.32
1019.36	228.33
1019.65	228.31
1019.93	228.36
1020.22	228.40
1020.51	228.48
1020.79	228.47
1021.08	228.13
1021.36	228.08
1021.65	228.30
1021.94	228.24
1022.22	228.46
1022.51	228.07
1022.79	229.36
1023.08	228.80
1023.36	230.32
1023.65	228.12
>>>>>End Processed Spectral Data<<<<<
