SpectraSuite Data File
++++++++++++++++++++++++++++++++++++
Date: Tue Oct 06 21:25:58 EDT 2015
User: lab3
Dark Spectrum Present: No
Reference Spectrum Present: No
Number of Sampled Component Spectra: 1
Spectrometers: USB2E7196
Integration Time (usec): 66000 (USB2E7196)
Spectra Averaged: 5000 (USB2E7196)
Boxcar Smoothing: 10 (USB2E7196)
Correct for Electrical Dark: No (USB2E7196)
Strobe/Lamp Enabled: No (USB2E7196)
Correct for Detector Non-linearity: No (USB2E7196)
Correct for Stray Light: No (USB2E7196)
Number of Pixels in Processed Spectrum: 2048
>>>>>Begin Processed Spectral Data<<<<<
339.09	0.00
339.48	213.44
339.86	214.91
340.24	216.27
340.63	217.76
341.01	221.81
341.39	220.32
341.78	221.95
342.16	223.28
342.54	223.47
342.93	212.06
343.31	222.78
343.69	223.32
344.07	223.79
344.46	224.24
344.84	224.65
345.22	224.85
345.60	225.13
345.99	225.34
346.37	225.49
346.75	225.61
347.13	225.70
347.52	225.80
347.90	225.93
348.28	225.98
348.66	226.06
349.05	226.06
349.43	226.13
349.81	226.21
350.19	226.28
350.57	226.36
350.96	226.47
351.34	226.58
351.72	226.69
352.10	226.82
352.48	226.89
352.87	226.94
353.25	227.01
353.63	227.07
354.01	227.13
354.39	227.21
354.77	227.29
355.15	227.42
355.54	227.46
355.92	227.46
356.30	227.54
356.68	227.73
357.06	227.81
357.44	227.84
357.82	227.89
358.20	228.11
358.58	228.17
358.97	228.24
359.35	228.33
359.73	228.42
360.11	228.48
360.49	228.54
360.87	228.59
361.25	228.66
361.63	228.77
362.01	228.82
362.39	228.85
362.77	228.90
363.15	228.92
363.53	228.95
363.91	229.00
364.29	229.02
364.67	228.87
365.05	228.89
365.43	228.94
365.81	228.98
366.19	228.93
366.57	229.01
366.95	229.01
367.33	228.97
367.71	228.95
368.09	228.98
368.47	228.97
368.85	228.96
369.23	228.98
369.61	228.90
369.99	228.94
370.37	228.94
370.75	229.06
371.13	229.02
371.51	228.97
371.89	228.96
372.27	228.94
372.65	228.93
373.03	228.88
373.41	228.83
373.78	228.77
374.16	228.65
374.54	228.55
374.92	228.49
375.30	228.45
375.68	228.37
376.06	228.33
376.44	228.27
376.82	228.23
377.19	228.19
377.57	228.14
377.95	228.03
378.33	227.96
378.71	227.75
379.09	227.71
379.47	227.69
379.84	227.63
380.22	227.55
380.60	227.48
380.98	227.43
381.36	227.38
381.73	227.31
382.11	227.30
382.49	227.27
382.87	227.21
383.25	227.17
383.62	227.34
384.00	227.26
384.38	227.23
384.76	227.23
385.13	227.25
385.51	227.21
385.89	227.16
386.27	227.14
386.64	227.14
387.02	227.08
387.40	227.04
387.78	227.02
388.15	227.01
388.53	226.98
388.91	226.96
389.29	226.93
389.66	226.94
390.04	226.90
390.42	226.92
390.79	226.91
391.17	226.90
391.55	226.69
391.92	226.69
392.30	226.71
392.68	226.67
393.05	226.65
393.43	226.66
393.81	226.68
394.18	226.66
394.56	226.67
394.94	226.73
395.31	226.74
395.69	226.82
396.06	226.87
396.44	226.92
396.82	226.94
397.19	227.08
397.57	227.10
397.95	227.18
398.32	227.17
398.70	227.25
399.07	227.35
399.45	227.41
399.82	227.48
400.20	227.54
400.58	227.64
400.95	227.66
401.33	227.79
401.70	228.02
402.08	228.17
402.45	228.30
402.83	228.47
403.20	228.64
403.58	228.77
403.95	228.98
404.33	229.20
404.71	229.41
405.08	229.72
405.46	229.97
405.83	230.24
406.21	230.54
406.58	230.87
406.96	231.19
407.33	231.56
407.70	231.99
408.08	232.56
408.45	233.06
408.83	233.60
409.20	234.10
409.58	234.55
409.95	235.18
410.33	235.85
410.70	236.49
411.08	237.24
411.45	238.04
411.82	238.85
412.20	239.78
412.57	240.87
412.95	241.75
413.32	242.88
413.69	244.04
414.07	245.29
414.44	246.64
414.82	248.02
415.19	249.64
415.56	251.29
415.94	253.00
416.31	254.93
416.68	256.86
417.06	259.10
417.43	261.20
417.81	263.61
418.18	266.07
418.55	268.74
418.93	271.53
419.30	274.45
419.67	277.55
420.04	280.73
420.42	284.05
420.79	287.88
421.16	291.75
421.54	295.67
421.91	299.76
422.28	304.02
422.66	308.60
423.03	312.95
423.40	317.52
423.77	322.40
424.15	327.40
424.52	332.58
424.89	338.19
425.26	343.75
425.64	348.91
426.01	354.70
426.38	360.62
426.75	366.70
427.13	372.94
427.50	379.44
427.87	386.20
428.24	393.02
428.61	399.54
428.99	406.58
429.36	414.30
429.73	421.68
430.10	429.03
430.47	436.55
430.85	444.33
431.22	452.60
431.59	461.09
431.96	469.37
432.33	478.58
432.70	487.34
433.08	497.71
433.45	507.48
433.82	517.15
434.19	527.98
434.56	538.64
434.93	548.97
435.30	559.23
435.68	570.85
436.05	582.20
436.42	593.60
436.79	603.99
437.16	615.31
437.53	627.40
437.90	639.49
438.27	651.37
438.64	664.23
439.01	675.91
439.38	686.61
439.75	696.99
440.13	708.81
440.50	720.04
440.87	729.06
441.24	738.97
441.61	749.85
441.98	757.90
442.35	767.48
442.72	777.24
443.09	786.56
443.46	792.68
443.83	797.36
444.20	801.26
444.57	806.85
444.94	810.24
445.31	813.75
445.68	816.82
446.05	819.19
446.42	819.09
446.79	818.75
447.16	818.53
447.53	818.37
447.90	815.11
448.27	812.02
448.64	806.99
449.01	803.61
449.37	796.29
449.74	789.67
450.11	781.05
450.48	771.53
450.85	761.97
451.22	753.79
451.59	745.71
451.96	738.41
452.33	727.79
452.70	718.31
453.07	706.79
453.43	695.26
453.80	684.00
454.17	673.21
454.54	663.25
454.91	651.98
455.28	641.33
455.65	631.27
456.02	620.60
456.38	612.01
456.75	600.99
457.12	592.11
457.49	583.13
457.86	574.63
458.23	567.14
458.59	558.89
458.96	550.42
459.33	542.97
459.70	535.39
460.07	529.60
460.43	522.78
460.80	516.40
461.17	510.86
461.54	504.87
461.91	499.23
462.27	493.50
462.64	488.82
463.01	483.48
463.38	478.09
463.74	473.22
464.11	468.89
464.48	465.00
464.85	460.80
465.21	457.58
465.58	454.00
465.95	449.94
466.32	446.71
466.68	443.54
467.05	440.36
467.42	437.25
467.78	433.93
468.15	430.87
468.52	428.63
468.88	425.64
469.25	422.93
469.62	420.78
469.98	418.45
470.35	416.37
470.72	414.47
471.08	412.56
471.45	410.96
471.82	409.18
472.18	407.30
472.55	406.08
472.92	404.56
473.28	403.37
473.65	402.11
474.02	400.88
474.38	399.84
474.75	399.22
475.11	398.38
475.48	397.99
475.85	397.55
476.21	397.27
476.58	397.08
476.94	397.23
477.31	397.25
477.67	397.29
478.04	397.57
478.41	397.97
478.77	398.56
479.14	398.91
479.50	399.65
479.87	400.62
480.23	401.57
480.60	402.47
480.96	403.38
481.33	404.78
481.69	406.15
482.06	407.51
482.42	408.74
482.79	410.29
483.15	412.11
483.52	414.16
483.88	416.11
484.25	418.19
484.61	420.38
484.98	422.74
485.34	425.40
485.71	428.17
486.07	431.15
486.44	434.07
486.80	437.38
487.17	440.75
487.53	444.42
487.90	448.25
488.26	452.44
488.62	456.86
488.99	461.25
489.35	465.88
489.72	470.85
490.08	476.08
490.44	481.42
490.81	486.98
491.17	492.71
491.54	498.86
491.90	505.14
492.26	511.85
492.63	518.89
492.99	526.25
493.36	533.76
493.72	541.65
494.08	549.76
494.45	558.24
494.81	567.13
495.17	576.26
495.54	585.90
495.90	595.94
496.26	606.20
496.63	616.76
496.99	627.70
497.35	639.16
497.72	650.90
498.08	662.97
498.44	675.38
498.80	688.48
499.17	701.86
499.53	715.69
499.89	729.97
500.26	744.46
500.62	759.29
500.98	775.01
501.34	790.74
501.71	807.24
502.07	824.09
502.43	841.38
502.79	858.91
503.16	876.93
503.52	895.17
503.88	913.83
504.24	932.94
504.60	952.32
504.97	972.31
505.33	992.82
505.69	1014.40
506.05	1036.20
506.41	1057.98
506.78	1079.92
507.14	1102.40
507.50	1125.36
507.86	1148.71
508.22	1172.34
508.59	1195.83
508.95	1220.36
509.31	1245.43
509.67	1271.12
510.03	1296.79
510.39	1322.37
510.75	1348.05
511.12	1374.11
511.48	1400.47
511.84	1426.79
512.20	1453.43
512.56	1481.21
512.92	1508.83
513.28	1535.81
513.64	1563.23
514.00	1591.02
514.37	1619.10
514.73	1647.26
515.09	1674.76
515.45	1702.57
515.81	1730.63
516.17	1758.51
516.53	1785.71
516.89	1812.64
517.25	1839.91
517.61	1866.97
517.97	1894.74
518.33	1921.96
518.69	1949.11
519.05	1976.61
519.41	2004.32
519.77	2032.16
520.13	2058.40
520.49	2084.66
520.85	2111.34
521.21	2137.44
521.57	2163.86
521.93	2189.20
522.29	2215.25
522.65	2241.14
523.01	2266.72
523.37	2291.59
523.73	2317.18
524.09	2342.48
524.45	2367.63
524.81	2392.11
525.17	2416.55
525.53	2440.04
525.89	2464.01
526.25	2487.65
526.61	2509.57
526.97	2531.59
527.33	2553.35
527.68	2575.06
528.04	2596.40
528.40	2616.59
528.76	2636.82
529.12	2656.52
529.48	2676.99
529.84	2694.70
530.20	2712.75
530.56	2730.10
530.91	2747.57
531.27	2764.34
531.63	2780.34
531.99	2795.91
532.35	2811.32
532.71	2826.22
533.07	2841.59
533.42	2854.99
533.78	2868.50
534.14	2883.18
534.50	2896.67
534.86	2910.74
535.21	2922.49
535.57	2934.10
535.93	2945.39
536.29	2954.92
536.65	2964.35
537.00	2972.40
537.36	2981.69
537.72	2990.12
538.08	2998.07
538.44	3004.70
538.79	3011.20
539.15	3016.32
539.51	3020.64
539.87	3023.67
540.22	3025.06
540.58	3026.71
540.94	3029.04
541.29	3030.36
541.65	3030.24
542.01	3029.71
542.37	3027.43
542.72	3026.93
543.08	3024.59
543.44	3022.42
543.79	3020.10
544.15	3016.92
544.51	3013.72
544.87	3009.57
545.22	3004.38
545.58	2998.85
545.94	2993.65
546.29	2986.93
546.65	2980.33
547.01	2973.98
547.36	2968.19
547.72	2962.49
548.07	2955.04
548.43	2946.42
548.79	2937.48
549.14	2928.74
549.50	2920.14
549.86	2910.65
550.21	2899.31
550.57	2889.35
550.92	2877.59
551.28	2866.02
551.64	2854.86
551.99	2843.41
552.35	2831.51
552.70	2819.50
553.06	2807.96
553.41	2795.97
553.77	2783.69
554.13	2771.43
554.48	2757.91
554.84	2743.24
555.19	2729.13
555.55	2714.98
555.90	2701.38
556.26	2688.00
556.61	2673.54
556.97	2657.97
557.32	2642.80
557.68	2628.07
558.03	2612.86
558.39	2598.67
558.74	2585.18
559.10	2569.70
559.45	2554.20
559.81	2539.36
560.16	2524.16
560.52	2508.65
560.87	2493.44
561.23	2477.68
561.58	2462.60
561.94	2447.11
562.29	2431.20
562.64	2415.42
563.00	2399.65
563.35	2384.09
563.71	2368.12
564.06	2352.27
564.42	2336.92
564.77	2321.74
565.12	2306.15
565.48	2290.29
565.83	2274.50
566.19	2258.64
566.54	2243.04
566.89	2227.01
567.25	2210.95
567.60	2195.71
567.96	2179.86
568.31	2162.45
568.66	2145.98
569.02	2130.10
569.37	2114.80
569.72	2100.08
570.08	2084.88
570.43	2069.05
570.78	2052.97
571.14	2036.82
571.49	2020.62
571.84	2004.70
572.20	1987.49
572.55	1971.10
572.90	1954.81
573.26	1938.65
573.61	1921.81
573.96	1905.45
574.31	1888.98
574.67	1872.20
575.02	1855.11
575.37	1838.00
575.72	1821.83
576.08	1805.38
576.43	1788.01
576.78	1770.96
577.13	1754.12
577.49	1737.48
577.84	1721.39
578.19	1704.85
578.54	1688.24
578.90	1671.52
579.25	1654.64
579.60	1639.12
579.95	1623.25
580.30	1607.33
580.66	1591.11
581.01	1574.99
581.36	1558.94
581.71	1543.77
582.06	1528.63
582.42	1513.28
582.77	1498.36
583.12	1483.68
583.47	1469.06
583.82	1454.64
584.17	1439.60
584.53	1424.64
584.88	1410.06
585.23	1395.28
585.58	1380.92
585.93	1366.41
586.28	1353.02
586.63	1339.46
586.98	1325.34
587.34	1311.69
587.69	1297.83
588.04	1284.31
588.39	1271.09
588.74	1257.50
589.09	1244.01
589.44	1230.20
589.79	1217.05
590.14	1203.92
590.49	1190.82
590.84	1177.95
591.19	1165.47
591.54	1153.15
591.89	1140.42
592.25	1128.02
592.60	1115.50
592.95	1103.12
593.30	1091.21
593.65	1078.93
594.00	1066.97
594.35	1055.98
594.70	1044.22
595.05	1033.11
595.40	1021.85
595.75	1010.44
596.10	999.66
596.45	988.83
596.80	978.46
597.15	968.02
597.50	957.56
597.85	947.46
598.19	937.34
598.54	927.19
598.89	917.59
599.24	908.39
599.59	898.93
599.94	890.19
600.29	881.49
600.64	872.55
600.99	863.50
601.34	854.81
601.69	845.58
602.04	837.32
602.39	828.92
602.74	820.75
603.08	812.68
603.43	804.63
603.78	796.59
604.13	788.59
604.48	780.61
604.83	772.91
605.18	765.25
605.53	757.77
605.87	750.25
606.22	742.84
606.57	735.37
606.92	727.86
607.27	720.35
607.62	713.04
607.96	705.99
608.31	699.49
608.66	692.83
609.01	686.49
609.36	680.07
609.70	673.65
610.05	667.21
610.40	660.99
610.75	654.73
611.10	648.70
611.44	642.67
611.79	636.81
612.14	630.83
612.49	624.94
612.83	619.36
613.18	613.85
613.53	608.35
613.88	602.97
614.22	597.98
614.57	592.92
614.92	587.97
615.27	583.14
615.61	578.17
615.96	573.28
616.31	568.36
616.65	563.61
617.00	558.99
617.35	554.47
617.70	549.94
618.04	545.53
618.39	541.23
618.74	537.21
619.08	533.13
619.43	529.20
619.78	525.22
620.12	521.20
620.47	517.40
620.82	513.70
621.16	510.04
621.51	506.42
621.85	502.79
622.20	499.24
622.55	495.69
622.89	492.19
623.24	488.87
623.59	485.62
623.93	482.44
624.28	479.41
624.62	476.55
624.97	473.74
625.32	470.83
625.66	467.90
626.01	464.92
626.35	462.13
626.70	459.27
627.04	456.63
627.39	453.95
627.73	451.35
628.08	448.78
628.43	446.25
628.77	443.65
629.12	441.15
629.46	438.79
629.81	436.56
630.15	434.25
630.50	431.97
630.84	429.74
631.19	427.56
631.53	425.47
631.88	423.20
632.22	421.02
632.57	419.16
632.91	417.24
633.26	415.41
633.60	413.58
633.95	411.85
634.29	410.01
634.64	408.22
634.98	406.31
635.32	404.59
635.67	403.03
636.01	401.45
636.36	399.94
636.70	398.50
637.05	396.90
637.39	395.47
637.73	394.03
638.08	392.65
638.42	391.32
638.77	389.85
639.11	388.37
639.45	386.93
639.80	385.44
640.14	384.04
640.49	382.62
640.83	381.22
641.17	379.88
641.52	378.55
641.86	377.27
642.20	376.14
642.55	374.84
642.89	373.56
643.23	372.34
643.58	371.26
643.92	370.01
644.26	368.86
644.61	367.75
644.95	366.61
645.29	365.41
645.64	364.18
645.98	363.08
646.32	362.10
646.66	361.04
647.01	360.02
647.35	359.09
647.69	358.13
648.04	357.24
648.38	356.28
648.72	355.37
649.06	354.46
649.41	353.52
649.75	352.65
650.09	351.80
650.43	350.93
650.78	350.00
651.12	349.15
651.46	348.30
651.80	347.47
652.14	346.69
652.49	345.99
652.83	345.21
653.17	344.40
653.51	343.62
653.85	342.96
654.20	342.24
654.54	341.43
654.88	340.66
655.22	339.95
655.56	339.22
655.90	338.51
656.25	337.82
656.59	337.15
656.93	336.51
657.27	335.92
657.61	335.26
657.95	334.66
658.29	334.03
658.64	333.42
658.98	332.76
659.32	332.11
659.66	331.50
660.00	330.94
660.34	330.38
660.68	329.76
661.02	329.08
661.36	328.45
661.70	327.87
662.05	327.30
662.39	326.74
662.73	326.26
663.07	325.82
663.41	325.34
663.75	324.81
664.09	324.27
664.43	323.63
664.77	323.08
665.11	322.49
665.45	321.96
665.79	321.45
666.13	320.92
666.47	320.37
666.81	319.79
667.15	319.18
667.49	318.70
667.83	318.27
668.17	317.81
668.51	317.39
668.85	316.98
669.19	316.63
669.53	316.09
669.87	315.54
670.21	314.97
670.55	314.45
670.89	314.04
671.23	313.58
671.57	313.17
671.91	312.83
672.25	312.48
672.58	312.14
672.92	311.70
673.26	311.35
673.60	311.00
673.94	310.63
674.28	310.29
674.62	309.92
674.96	309.50
675.30	309.12
675.64	308.68
675.97	308.22
676.31	307.73
676.65	307.32
676.99	307.00
677.33	306.57
677.67	306.18
678.01	305.69
678.34	305.29
678.68	304.90
679.02	304.44
679.36	303.99
679.70	303.54
680.04	303.15
680.37	302.73
680.71	302.34
681.05	301.98
681.39	301.56
681.73	301.09
682.06	300.66
682.40	300.26
682.74	299.91
683.08	299.60
683.42	299.22
683.75	298.88
684.09	298.41
684.43	298.03
684.77	297.62
685.10	297.24
685.44	296.84
685.78	296.43
686.12	296.04
686.45	295.62
686.79	295.19
687.13	294.78
687.46	294.34
687.80	293.92
688.14	293.44
688.48	293.02
688.81	292.59
689.15	292.23
689.49	291.78
689.82	291.34
690.16	290.79
690.50	290.35
690.83	289.88
691.17	289.43
691.51	288.99
691.84	288.59
692.18	288.15
692.52	287.69
692.85	287.25
693.19	286.87
693.52	286.44
693.86	285.99
694.20	285.56
694.53	285.12
694.87	284.66
695.21	284.20
695.54	283.76
695.88	283.31
696.21	282.81
696.55	282.36
696.88	281.91
697.22	281.50
697.56	281.08
697.89	280.60
698.23	280.18
698.56	279.73
698.90	279.31
699.23	278.85
699.57	278.44
699.90	278.01
700.24	277.54
700.58	277.13
700.91	276.76
701.25	276.51
701.58	276.18
701.92	275.84
702.25	275.46
702.59	275.04
702.92	274.64
703.26	274.23
703.59	273.82
703.93	273.55
704.26	273.16
704.60	272.74
704.93	272.34
705.26	271.92
705.60	271.56
705.93	271.11
706.27	270.79
706.60	270.44
706.94	270.12
707.27	269.70
707.61	269.30
707.94	268.88
708.27	268.31
708.61	267.85
708.94	267.41
709.28	267.01
709.61	266.62
709.94	266.27
710.28	265.92
710.61	265.59
710.95	265.08
711.28	264.84
711.61	264.48
711.95	264.17
712.28	263.80
712.61	263.43
712.95	263.17
713.28	262.89
713.61	262.49
713.95	262.10
714.28	261.77
714.61	261.41
714.95	261.08
715.28	260.75
715.61	260.43
715.95	260.14
716.28	259.81
716.61	259.53
716.95	259.19
717.28	258.87
717.61	258.54
717.94	258.25
718.28	257.82
718.61	257.52
718.94	257.19
719.27	256.90
719.61	256.63
719.94	256.31
720.27	255.92
720.60	255.64
720.94	255.36
721.27	255.08
721.60	254.84
721.93	254.55
722.27	254.32
722.60	254.06
722.93	253.75
723.26	253.51
723.59	253.20
723.93	252.96
724.26	252.72
724.59	252.46
724.92	252.22
725.25	252.02
725.59	251.78
725.92	251.56
726.25	251.32
726.58	251.07
726.91	250.81
727.24	250.60
727.57	250.35
727.91	250.09
728.24	249.88
728.57	249.64
728.90	249.43
729.23	249.14
729.56	249.01
729.89	248.79
730.22	248.56
730.55	248.35
730.89	248.13
731.22	247.91
731.55	247.70
731.88	247.49
732.21	247.25
732.54	247.03
732.87	246.82
733.20	246.64
733.53	246.45
733.86	246.27
734.19	246.05
734.52	245.89
734.85	245.85
735.18	245.63
735.51	245.50
735.84	245.33
736.17	245.21
736.50	244.93
736.83	244.96
737.16	244.78
737.49	244.62
737.82	244.42
738.15	244.27
738.48	244.08
738.81	243.90
739.14	243.70
739.47	243.51
739.80	243.34
740.13	243.17
740.46	242.97
740.79	242.77
741.12	242.59
741.45	242.38
741.78	242.10
742.11	241.98
742.44	241.76
742.77	241.61
743.10	241.41
743.43	241.24
743.75	240.88
744.08	240.99
744.41	240.82
744.74	240.66
745.07	240.47
745.40	240.35
745.73	240.28
746.06	240.15
746.39	240.03
746.71	239.88
747.04	239.72
747.37	239.58
747.70	239.46
748.03	239.34
748.36	239.23
748.68	239.09
749.01	238.91
749.34	238.79
749.67	238.65
750.00	238.54
750.33	238.55
750.65	238.44
750.98	238.05
751.31	237.93
751.64	237.83
751.97	237.81
752.29	237.67
752.62	237.46
752.95	237.33
753.28	237.18
753.60	237.05
753.93	236.97
754.26	236.87
754.59	236.69
754.91	236.56
755.24	236.42
755.57	236.31
755.90	236.19
756.22	236.05
756.55	235.91
756.88	235.76
757.20	235.53
757.53	235.37
757.86	235.26
758.19	235.16
758.51	235.04
758.84	234.84
759.17	234.72
759.49	234.63
759.82	234.61
760.15	234.53
760.47	234.43
760.80	234.28
761.13	234.20
761.45	234.12
761.78	234.03
762.11	233.95
762.43	233.83
762.76	233.74
763.08	233.68
763.41	233.61
763.74	233.54
764.06	233.45
764.39	233.37
764.71	233.28
765.04	233.17
765.37	233.08
765.69	233.00
766.02	232.91
766.34	232.82
766.67	232.67
767.00	232.62
767.32	232.64
767.65	232.69
767.97	232.60
768.30	232.54
768.62	232.47
768.95	232.38
769.27	232.30
769.60	232.26
769.92	232.16
770.25	232.06
770.57	231.95
770.90	231.89
771.22	231.81
771.55	231.75
771.87	231.71
772.20	231.65
772.52	231.74
772.85	231.90
773.17	231.86
773.50	231.78
773.82	231.69
774.15	231.54
774.47	231.37
774.80	231.30
775.12	231.23
775.45	231.17
775.77	231.13
776.09	231.09
776.42	231.04
776.74	231.05
777.07	231.00
777.39	230.97
777.72	230.91
778.04	230.89
778.36	230.83
778.69	230.78
779.01	230.75
779.33	230.55
779.66	230.30
779.98	230.24
780.31	230.21
780.63	230.25
780.95	230.24
781.28	230.20
781.60	230.14
781.92	230.10
782.25	230.07
782.57	230.02
782.89	229.98
783.22	229.93
783.54	229.85
783.86	229.83
784.19	229.79
784.51	229.80
784.83	229.74
785.16	229.70
785.48	229.67
785.80	229.63
786.12	229.61
786.45	229.57
786.77	229.55
787.09	229.50
787.42	229.40
787.74	229.37
788.06	229.35
788.38	229.32
788.71	229.28
789.03	229.26
789.35	229.25
789.67	229.20
789.99	229.17
790.32	229.12
790.64	229.11
790.96	229.25
791.28	229.16
791.61	229.12
791.93	229.11
792.25	229.07
792.57	229.17
792.89	229.12
793.21	229.10
793.54	229.05
793.86	229.01
794.18	228.99
794.50	228.93
794.82	228.90
795.14	228.90
795.47	228.91
795.79	228.88
796.11	228.82
796.43	228.79
796.75	228.77
797.07	228.75
797.39	228.72
797.71	228.54
798.04	228.53
798.36	228.52
798.68	228.49
799.00	228.48
799.32	228.36
799.64	228.37
799.96	228.34
800.28	228.36
800.60	228.34
800.92	228.33
801.24	228.30
801.56	228.30
801.89	228.26
802.21	228.24
802.53	228.19
802.85	228.21
803.17	228.28
803.49	228.22
803.81	228.19
804.13	228.16
804.45	228.12
804.77	228.11
805.09	228.09
805.41	228.05
805.73	228.00
806.05	227.94
806.37	227.91
806.69	227.87
807.01	227.83
807.33	227.82
807.65	227.73
807.97	227.80
808.28	227.75
808.60	227.73
808.92	227.69
809.24	227.78
809.56	227.73
809.88	227.64
810.20	227.65
810.52	227.67
810.84	227.64
811.16	227.61
811.48	227.58
811.80	227.63
812.12	227.61
812.43	227.64
812.75	227.63
813.07	227.60
813.39	227.60
813.71	227.56
814.03	227.53
814.35	227.54
814.67	227.45
814.98	227.42
815.30	227.41
815.62	227.37
815.94	227.24
816.26	227.24
816.58	227.20
816.89	227.20
817.21	227.14
817.53	227.14
817.85	227.14
818.17	227.12
818.48	227.04
818.80	227.06
819.12	227.01
819.44	226.98
819.76	226.95
820.07	226.93
820.39	226.93
820.71	226.93
821.03	226.93
821.34	226.91
821.66	226.92
821.98	226.92
822.30	226.91
822.61	227.01
822.93	226.97
823.25	226.96
823.57	226.93
823.88	226.94
824.20	226.93
824.52	226.95
824.83	226.93
825.15	226.91
825.47	226.88
825.79	226.89
826.10	226.87
826.42	226.86
826.74	226.86
827.05	226.85
827.37	226.85
827.69	226.83
828.00	226.83
828.32	226.81
828.64	226.78
828.95	226.87
829.27	226.81
829.58	226.80
829.90	226.83
830.22	226.83
830.53	226.79
830.85	226.77
831.17	226.71
831.48	226.70
831.80	226.70
832.11	226.69
832.43	226.65
832.75	226.65
833.06	226.75
833.38	226.70
833.69	226.68
834.01	226.68
834.32	226.67
834.64	226.64
834.96	226.64
835.27	226.64
835.59	226.57
835.90	226.54
836.22	226.53
836.53	226.49
836.85	226.46
837.16	226.64
837.48	226.64
837.79	226.70
838.11	226.69
838.42	226.69
838.74	226.70
839.05	226.68
839.37	226.67
839.68	226.55
840.00	226.54
840.31	226.57
840.63	226.54
840.94	226.52
841.26	226.49
841.57	226.48
841.88	226.49
842.20	226.46
842.51	226.43
842.83	226.42
843.14	226.58
843.46	226.57
843.77	226.46
844.08	226.45
844.40	226.39
844.71	226.37
845.03	226.35
845.34	226.33
845.65	226.33
845.97	226.33
846.28	226.34
846.60	226.35
846.91	226.32
847.22	226.31
847.54	226.35
847.85	226.37
848.16	226.36
848.48	226.32
848.79	226.39
849.10	226.41
849.42	226.42
849.73	226.25
850.04	226.24
850.36	226.17
850.67	226.21
850.98	226.21
851.30	226.23
851.61	226.22
851.92	226.22
852.23	226.27
852.55	226.28
852.86	226.28
853.17	226.29
853.49	226.33
853.80	226.36
854.11	226.36
854.42	226.38
854.74	226.37
855.05	226.37
855.36	226.27
855.67	226.27
855.99	226.26
856.30	226.47
856.61	226.46
856.92	226.46
857.23	226.47
857.55	226.44
857.86	226.43
858.17	226.45
858.48	226.42
858.79	226.38
859.11	226.39
859.42	226.37
859.73	226.34
860.04	226.32
860.35	226.26
860.66	226.20
860.98	226.19
861.29	226.21
861.60	226.20
861.91	226.24
862.22	226.21
862.53	226.18
862.84	225.97
863.16	226.00
863.47	225.97
863.78	225.94
864.09	225.96
864.40	225.97
864.71	225.96
865.02	225.99
865.33	225.96
865.64	225.93
865.95	225.93
866.27	226.04
866.58	226.03
866.89	226.05
867.20	226.05
867.51	226.02
867.82	226.01
868.13	226.06
868.44	226.02
868.75	226.05
869.06	226.06
869.37	226.08
869.68	226.03
869.99	226.06
870.30	226.07
870.61	226.08
870.92	226.05
871.23	226.03
871.54	226.04
871.85	226.08
872.16	226.11
872.47	226.09
872.78	225.98
873.09	225.99
873.40	225.97
873.71	225.98
874.02	225.99
874.33	225.97
874.64	225.93
874.95	225.96
875.26	225.91
875.56	225.91
875.87	225.89
876.18	225.89
876.49	226.06
876.80	226.04
877.11	226.01
877.42	226.02
877.73	226.02
878.04	225.99
878.35	225.99
878.66	225.99
878.96	225.99
879.27	225.99
879.58	225.98
879.89	225.97
880.20	226.02
880.51	226.01
880.82	226.01
881.12	226.02
881.43	225.98
881.74	225.96
882.05	225.95
882.36	225.96
882.67	225.98
882.97	225.78
883.28	225.76
883.59	225.76
883.90	225.78
884.21	225.80
884.51	225.79
884.82	225.76
885.13	225.75
885.44	225.75
885.74	225.75
886.05	225.74
886.36	225.75
886.67	225.68
886.98	225.78
887.28	225.79
887.59	225.79
887.90	225.80
888.20	225.79
888.51	225.83
888.82	225.80
889.13	225.81
889.43	225.98
889.74	225.97
890.05	225.97
890.35	225.95
890.66	225.91
890.97	225.90
891.28	225.88
891.58	225.89
891.89	225.88
892.20	225.87
892.50	225.85
892.81	225.84
893.12	225.83
893.42	225.74
893.73	225.74
894.04	225.74
894.34	225.75
894.65	225.75
894.95	225.73
895.26	225.74
895.57	225.82
895.87	225.63
896.18	225.67
896.48	225.68
896.79	225.67
897.10	225.70
897.40	225.71
897.71	225.73
898.01	225.72
898.32	225.74
898.63	225.74
898.93	225.75
899.24	225.75
899.54	225.74
899.85	225.74
900.15	225.72
900.46	225.72
900.76	225.73
901.07	225.73
901.38	225.72
901.68	225.74
901.99	225.64
902.29	225.66
902.60	225.64
902.90	225.63
903.21	225.63
903.51	225.61
903.82	225.65
904.12	225.64
904.43	225.65
904.73	225.64
905.03	225.65
905.34	225.83
905.64	225.82
905.95	225.82
906.25	225.82
906.56	225.82
906.86	225.82
907.17	225.80
907.47	225.81
907.77	225.80
908.08	225.76
908.38	225.77
908.69	225.77
908.99	225.80
909.30	225.82
909.60	225.81
909.90	225.81
910.21	225.76
910.51	225.73
910.81	225.72
911.12	225.73
911.42	225.73
911.73	225.54
912.03	225.55
912.33	225.59
912.64	225.58
912.94	225.56
913.24	225.53
913.55	225.52
913.85	225.50
914.15	225.54
914.46	225.56
914.76	225.54
915.06	225.53
915.37	225.49
915.67	225.48
915.97	225.47
916.27	225.45
916.58	225.46
916.88	225.46
917.18	225.44
917.49	225.56
917.79	225.56
918.09	225.58
918.39	225.62
918.70	225.60
919.00	225.61
919.30	225.70
919.60	225.69
919.91	225.67
920.21	225.68
920.51	225.64
920.81	225.63
921.12	225.66
921.42	225.66
921.72	225.67
922.02	225.68
922.32	225.71
922.63	225.72
922.93	225.82
923.23	225.83
923.53	225.81
923.83	225.69
924.13	225.71
924.44	225.71
924.74	225.73
925.04	225.77
925.34	225.76
925.64	225.69
925.94	225.69
926.24	225.79
926.55	225.78
926.85	225.81
927.15	225.81
927.45	225.80
927.75	225.80
928.05	225.80
928.35	225.79
928.65	225.82
928.95	225.83
929.26	225.75
929.56	225.78
929.86	225.80
930.16	225.78
930.46	225.77
930.76	225.78
931.06	225.69
931.36	225.65
931.66	225.68
931.96	225.70
932.26	225.71
932.56	225.63
932.86	225.64
933.16	225.64
933.46	225.63
933.76	225.60
934.06	225.63
934.36	225.69
934.66	225.68
934.96	225.66
935.26	225.66
935.56	225.69
935.86	225.64
936.16	225.61
936.46	225.60
936.76	225.58
937.06	225.56
937.36	225.57
937.66	225.58
937.96	225.56
938.26	225.52
938.56	225.51
938.86	225.52
939.16	225.56
939.46	225.57
939.76	225.58
940.06	225.58
940.35	225.55
940.65	225.46
940.95	225.48
941.25	225.44
941.55	225.41
941.85	225.40
942.15	225.44
942.45	225.49
942.75	225.49
943.04	225.51
943.34	225.54
943.64	225.52
943.94	225.50
944.24	225.50
944.54	225.51
944.84	225.51
945.13	225.48
945.43	225.45
945.73	225.44
946.03	225.42
946.33	225.41
946.62	225.39
946.92	225.39
947.22	225.40
947.52	225.41
947.82	225.43
948.11	225.41
948.41	225.37
948.71	225.32
949.01	225.34
949.31	225.32
949.60	225.30
949.90	225.33
950.20	225.32
950.50	225.32
950.79	225.31
951.09	225.33
951.39	225.33
951.69	225.31
951.98	225.34
952.28	225.36
952.58	225.35
952.87	225.36
953.17	225.38
953.47	225.36
953.76	225.36
954.06	225.33
954.36	225.31
954.66	225.31
954.95	225.36
955.25	225.37
955.55	225.38
955.84	225.36
956.14	225.37
956.44	225.38
956.73	225.35
957.03	225.37
957.32	225.37
957.62	225.36
957.92	225.40
958.21	225.38
958.51	225.58
958.81	225.61
959.10	225.63
959.40	225.67
959.69	225.68
959.99	225.71
960.29	225.71
960.58	225.71
960.88	225.78
961.17	225.76
961.47	225.77
961.76	225.75
962.06	225.79
962.36	225.77
962.65	225.77
962.95	225.79
963.24	225.77
963.54	225.77
963.83	225.78
964.13	225.77
964.42	225.75
964.72	225.60
965.01	225.60
965.31	225.59
965.60	225.54
965.90	225.65
966.19	225.61
966.49	225.63
966.78	225.63
967.08	225.61
967.37	225.61
967.67	225.58
967.96	225.61
968.26	225.59
968.55	225.62
968.85	225.62
969.14	225.61
969.43	225.62
969.73	225.60
970.02	225.59
970.32	225.58
970.61	225.55
970.91	225.50
971.20	225.47
971.49	225.46
971.79	225.48
972.08	225.35
972.38	225.36
972.67	225.35
972.96	225.38
973.26	225.33
973.55	225.38
973.85	225.38
974.14	225.37
974.43	225.38
974.73	225.34
975.02	225.33
975.31	225.33
975.61	225.33
975.90	225.31
976.19	225.30
976.49	225.32
976.78	225.34
977.07	225.33
977.37	225.35
977.66	225.37
977.95	225.34
978.24	225.36
978.54	225.40
978.83	225.38
979.12	225.37
979.42	225.37
979.71	225.33
980.00	225.32
980.29	225.32
980.59	225.29
980.88	225.34
981.17	225.33
981.46	225.34
981.76	225.34
982.05	225.39
982.34	225.41
982.63	225.40
982.93	225.40
983.22	225.45
983.51	225.46
983.80	225.48
984.09	225.51
984.39	225.50
984.68	225.46
984.97	225.48
985.26	225.47
985.55	225.48
985.85	225.46
986.14	225.49
986.43	225.51
986.72	225.50
987.01	225.45
987.30	225.45
987.59	225.44
987.89	225.44
988.18	225.38
988.47	225.37
988.76	225.35
989.05	225.34
989.34	225.31
989.63	225.35
989.92	225.32
990.22	225.30
990.51	225.29
990.80	225.28
991.09	225.29
991.38	225.32
991.67	225.30
991.96	225.28
992.25	225.29
992.54	225.25
992.83	225.25
993.12	225.24
993.41	225.27
993.70	225.35
993.99	225.38
994.28	225.41
994.58	225.44
994.87	225.42
995.16	225.42
995.45	225.41
995.74	225.34
996.03	225.36
996.32	225.39
996.61	225.43
996.90	225.43
997.19	225.41
997.48	225.41
997.77	225.39
998.06	225.40
998.34	225.39
998.63	225.39
998.92	225.40
999.21	225.43
999.50	225.43
999.79	225.37
1000.08	225.35
1000.37	225.35
1000.66	225.32
1000.95	225.37
1001.24	225.38
1001.53	225.41
1001.82	225.41
1002.11	225.36
1002.40	225.37
1002.68	225.40
1002.97	225.53
1003.26	225.51
1003.55	225.48
1003.84	225.50
1004.13	225.56
1004.42	225.55
1004.71	225.55
1004.99	225.54
1005.28	225.57
1005.57	225.56
1005.86	225.54
1006.15	225.52
1006.44	225.50
1006.72	225.52
1007.01	225.49
1007.30	225.48
1007.59	225.47
1007.88	225.47
1008.17	225.48
1008.45	225.45
1008.74	225.37
1009.03	225.29
1009.32	225.29
1009.60	225.30
1009.89	225.28
1010.18	225.20
1010.47	225.19
1010.76	225.19
1011.04	225.19
1011.33	225.18
1011.62	225.19
1011.91	225.22
1012.19	225.23
1012.48	225.24
1012.77	225.23
1013.05	225.30
1013.34	225.30
1013.63	225.29
1013.92	225.30
1014.20	225.29
1014.49	225.30
1014.78	225.32
1015.06	225.26
1015.35	225.27
1015.64	225.29
1015.92	225.32
1016.21	225.33
1016.50	225.34
1016.78	225.36
1017.07	225.37
1017.36	225.34
1017.64	225.31
1017.93	225.32
1018.22	225.30
1018.50	225.30
1018.79	225.29
1019.08	225.23
1019.36	225.24
1019.65	225.23
1019.93	225.28
1020.22	225.30
1020.51	225.39
1020.79	225.37
1021.08	225.02
1021.36	225.01
1021.65	225.34
1021.94	225.19
1022.22	225.47
1022.51	225.00
1022.79	226.20
1023.08	225.49
1023.36	227.45
1023.65	224.86
>>>>>End Processed Spectral Data<<<<<
