SpectraSuite Data File
++++++++++++++++++++++++++++++++++++
Date: Tue Oct 06 14:07:08 EDT 2015
User: lab3
Dark Spectrum Present: No
Reference Spectrum Present: No
Number of Sampled Component Spectra: 1
Spectrometers: USB2E7196
Integration Time (usec): 66000 (USB2E7196)
Spectra Averaged: 1000 (USB2E7196)
Boxcar Smoothing: 10 (USB2E7196)
Correct for Electrical Dark: No (USB2E7196)
Strobe/Lamp Enabled: No (USB2E7196)
Correct for Detector Non-linearity: No (USB2E7196)
Correct for Stray Light: No (USB2E7196)
Number of Pixels in Processed Spectrum: 2048
>>>>>Begin Processed Spectral Data<<<<<
339.09	0.00
339.48	215.43
339.86	216.74
340.24	218.08
340.63	219.59
341.01	223.51
341.39	222.34
341.78	224.01
342.16	225.01
342.54	225.46
342.93	213.87
343.31	224.69
343.69	225.22
344.07	225.69
344.46	226.14
344.84	226.55
345.22	226.76
345.60	227.04
345.99	227.24
346.37	227.39
346.75	227.50
347.13	227.58
347.52	227.67
347.90	227.79
348.28	227.82
348.66	227.89
349.05	227.88
349.43	227.95
349.81	228.02
350.19	228.09
350.57	228.16
350.96	228.26
351.34	228.36
351.72	228.46
352.10	228.57
352.48	228.64
352.87	228.68
353.25	228.74
353.63	228.79
354.01	228.84
354.39	228.93
354.77	229.00
355.15	229.12
355.54	229.16
355.92	229.16
356.30	229.24
356.68	229.43
357.06	229.51
357.44	229.55
357.82	229.60
358.20	229.81
358.58	229.87
358.97	229.94
359.35	230.03
359.73	230.12
360.11	230.16
360.49	230.23
360.87	230.28
361.25	230.35
361.63	230.46
362.01	230.52
362.39	230.53
362.77	230.59
363.15	230.61
363.53	230.63
363.91	230.68
364.29	230.70
364.67	230.56
365.05	230.58
365.43	230.62
365.81	230.65
366.19	230.59
366.57	230.67
366.95	230.66
367.33	230.62
367.71	230.61
368.09	230.66
368.47	230.65
368.85	230.64
369.23	230.65
369.61	230.58
369.99	230.62
370.37	230.63
370.75	230.74
371.13	230.71
371.51	230.67
371.89	230.65
372.27	230.63
372.65	230.63
373.03	230.60
373.41	230.55
373.78	230.51
374.16	230.38
374.54	230.29
374.92	230.23
375.30	230.19
375.68	230.12
376.06	230.07
376.44	230.00
376.82	229.97
377.19	229.93
377.57	229.88
377.95	229.77
378.33	229.70
378.71	229.50
379.09	229.45
379.47	229.44
379.84	229.38
380.22	229.31
380.60	229.23
380.98	229.17
381.36	229.13
381.73	229.07
382.11	229.06
382.49	229.02
382.87	228.96
383.25	228.92
383.62	229.09
384.00	229.03
384.38	229.00
384.76	229.01
385.13	229.02
385.51	228.98
385.89	228.93
386.27	228.90
386.64	228.89
387.02	228.85
387.40	228.80
387.78	228.78
388.15	228.76
388.53	228.73
388.91	228.71
389.29	228.68
389.66	228.69
390.04	228.63
390.42	228.65
390.79	228.65
391.17	228.64
391.55	228.43
391.92	228.43
392.30	228.45
392.68	228.39
393.05	228.38
393.43	228.39
393.81	228.41
394.18	228.39
394.56	228.41
394.94	228.47
395.31	228.47
395.69	228.55
396.06	228.60
396.44	228.65
396.82	228.68
397.19	228.81
397.57	228.83
397.95	228.91
398.32	228.90
398.70	228.97
399.07	229.07
399.45	229.13
399.82	229.20
400.20	229.25
400.58	229.35
400.95	229.38
401.33	229.52
401.70	229.74
402.08	229.89
402.45	230.01
402.83	230.17
403.20	230.34
403.58	230.47
403.95	230.68
404.33	230.90
404.71	231.10
405.08	231.41
405.46	231.67
405.83	231.95
406.21	232.23
406.58	232.56
406.96	232.89
407.33	233.26
407.70	233.68
408.08	234.26
408.45	234.75
408.83	235.29
409.20	235.78
409.58	236.23
409.95	236.86
410.33	237.54
410.70	238.18
411.08	238.93
411.45	239.72
411.82	240.54
412.20	241.46
412.57	242.57
412.95	243.44
413.32	244.57
413.69	245.75
414.07	247.00
414.44	248.37
414.82	249.77
415.19	251.42
415.56	253.08
415.94	254.80
416.31	256.74
416.68	258.68
417.06	260.95
417.43	263.06
417.81	265.48
418.18	267.95
418.55	270.64
418.93	273.47
419.30	276.43
419.67	279.54
420.04	282.76
420.42	286.13
420.79	290.00
421.16	293.93
421.54	297.87
421.91	302.01
422.28	306.31
422.66	310.93
423.03	315.32
423.40	319.94
423.77	324.87
424.15	329.90
424.52	335.13
424.89	340.79
425.26	346.41
425.64	351.64
426.01	357.51
426.38	363.50
426.75	369.64
427.13	375.90
427.50	382.49
427.87	389.30
428.24	396.13
428.61	402.68
428.99	409.73
429.36	417.52
429.73	424.98
430.10	432.40
430.47	439.97
430.85	447.83
431.22	456.21
431.59	464.77
431.96	473.14
432.33	482.43
432.70	491.31
433.08	501.85
433.45	511.76
433.82	521.49
434.19	532.40
434.56	543.11
434.93	553.52
435.30	563.84
435.68	575.55
436.05	587.01
436.42	598.50
436.79	609.00
437.16	620.32
437.53	632.49
437.90	644.71
438.27	656.63
438.64	669.45
439.01	681.11
439.38	691.93
439.75	702.34
440.13	714.17
440.50	725.45
440.87	734.38
441.24	744.23
441.61	755.03
441.98	763.00
442.35	772.43
442.72	782.11
443.09	791.37
443.46	797.53
443.83	802.11
444.20	805.84
444.57	811.39
444.94	814.81
445.31	818.18
445.68	821.10
446.05	823.31
446.42	823.10
446.79	822.70
447.16	822.30
447.53	822.13
447.90	818.81
448.27	815.53
448.64	810.39
449.01	806.96
449.37	799.65
449.74	793.09
450.11	784.53
450.48	775.03
450.85	765.46
451.22	757.12
451.59	749.06
451.96	741.91
452.33	731.32
452.70	721.85
453.07	710.37
453.43	698.92
453.80	687.77
454.17	677.13
454.54	667.18
454.91	655.95
455.28	645.25
455.65	635.13
456.02	624.51
456.38	615.95
456.75	604.86
457.12	595.93
457.49	586.88
457.86	578.38
458.23	570.92
458.59	562.64
458.96	554.18
459.33	546.73
459.70	539.12
460.07	533.23
460.43	526.32
460.80	519.87
461.17	514.19
461.54	508.17
461.91	502.52
462.27	496.79
462.64	492.10
463.01	486.74
463.38	481.41
463.74	476.57
464.11	472.27
464.48	468.44
464.85	464.27
465.21	461.02
465.58	457.46
465.95	453.39
466.32	450.14
466.68	446.93
467.05	443.71
467.42	440.57
467.78	437.22
468.15	434.17
468.52	431.92
468.88	428.97
469.25	426.25
469.62	424.09
469.98	421.71
470.35	419.59
470.72	417.70
471.08	415.73
471.45	414.09
471.82	412.27
472.18	410.35
472.55	409.11
472.92	407.59
473.28	406.37
473.65	405.06
474.02	403.86
474.38	402.85
474.75	402.23
475.11	401.34
475.48	400.93
475.85	400.50
476.21	400.23
476.58	400.06
476.94	400.22
477.31	400.23
477.67	400.33
478.04	400.60
478.41	400.98
478.77	401.56
479.14	401.88
479.50	402.62
479.87	403.57
480.23	404.53
480.60	405.45
480.96	406.38
481.33	407.79
481.69	409.17
482.06	410.54
482.42	411.83
482.79	413.41
483.15	415.27
483.52	417.37
483.88	419.38
484.25	421.53
484.61	423.76
484.98	426.15
485.34	428.85
485.71	431.66
486.07	434.64
486.44	437.57
486.80	440.90
487.17	444.26
487.53	447.97
487.90	451.80
488.26	456.05
488.62	460.45
488.99	464.89
489.35	469.58
489.72	474.66
490.08	479.96
490.44	485.38
490.81	490.95
491.17	496.65
491.54	502.76
491.90	509.00
492.26	515.66
492.63	522.66
492.99	529.92
493.36	537.43
493.72	545.38
494.08	553.44
494.45	561.90
494.81	570.79
495.17	579.89
495.54	589.49
495.90	599.47
496.26	609.74
496.63	620.20
496.99	631.04
497.35	642.29
497.72	653.90
498.08	665.96
498.44	678.30
498.80	691.45
499.17	704.90
499.53	718.82
499.89	733.09
500.26	747.43
500.62	762.08
500.98	777.42
501.34	792.96
501.71	809.22
502.07	825.72
502.43	842.69
502.79	859.75
503.16	877.28
503.52	895.07
503.88	913.32
504.24	932.06
504.60	951.03
504.97	970.40
505.33	990.28
505.69	1011.08
506.05	1031.96
506.41	1052.67
506.78	1073.73
507.14	1095.59
507.50	1117.90
507.86	1140.70
508.22	1163.60
508.59	1186.34
508.95	1209.84
509.31	1233.84
509.67	1258.46
510.03	1283.00
510.39	1307.93
510.75	1332.89
511.12	1357.93
511.48	1382.96
511.84	1408.04
512.20	1433.58
512.56	1459.63
512.92	1485.38
513.28	1510.84
513.64	1536.66
514.00	1562.60
514.37	1588.75
514.73	1614.60
515.09	1639.95
515.45	1665.56
515.81	1691.25
516.17	1716.96
516.53	1742.04
516.89	1767.04
517.25	1792.19
517.61	1817.09
517.97	1842.20
518.33	1866.96
518.69	1891.53
519.05	1916.30
519.41	1941.01
519.77	1965.59
520.13	1989.88
520.49	2014.08
520.85	2038.22
521.21	2062.22
521.57	2086.45
521.93	2109.51
522.29	2133.05
522.65	2156.20
523.01	2179.04
523.37	2201.16
523.73	2223.67
524.09	2246.31
524.45	2269.01
524.81	2290.85
525.17	2312.52
525.53	2333.49
525.89	2354.72
526.25	2375.55
526.61	2395.26
526.97	2415.13
527.33	2434.57
527.68	2453.13
528.04	2471.10
528.40	2488.13
528.76	2505.66
529.12	2521.98
529.48	2538.83
529.84	2554.36
530.20	2570.93
530.56	2586.51
530.91	2601.88
531.27	2616.36
531.63	2629.71
531.99	2642.77
532.35	2654.31
532.71	2665.90
533.07	2677.76
533.42	2688.04
533.78	2699.10
534.14	2710.44
534.50	2720.38
534.86	2730.47
535.21	2738.61
535.57	2746.75
535.93	2755.25
536.29	2762.61
536.65	2770.20
537.00	2775.59
537.36	2781.36
537.72	2785.43
538.08	2789.17
538.44	2792.06
538.79	2795.29
539.15	2797.96
539.51	2800.06
539.87	2802.72
540.22	2803.32
540.58	2804.39
540.94	2805.17
541.29	2804.37
541.65	2802.12
542.01	2799.92
542.37	2796.65
542.72	2795.07
543.08	2792.35
543.44	2789.43
543.79	2784.70
544.15	2779.83
544.51	2775.92
544.87	2769.99
545.22	2763.47
545.58	2757.10
545.94	2751.58
546.29	2744.35
546.65	2736.46
547.01	2728.59
547.36	2720.38
547.72	2712.04
548.07	2702.52
548.43	2692.76
548.79	2682.02
549.14	2672.21
549.50	2662.29
549.86	2651.74
550.21	2639.34
550.57	2628.17
550.92	2615.24
551.28	2602.95
551.64	2590.95
551.99	2578.93
552.35	2567.06
552.70	2555.01
553.06	2543.36
553.41	2530.47
553.77	2517.16
554.13	2504.14
554.48	2490.39
554.84	2476.10
555.19	2462.75
555.55	2448.62
555.90	2434.67
556.26	2421.73
556.61	2407.98
556.97	2393.23
557.32	2378.86
557.68	2364.74
558.03	2350.04
558.39	2336.18
558.74	2322.57
559.10	2306.84
559.45	2291.58
559.81	2277.10
560.16	2262.21
560.52	2247.01
560.87	2232.62
561.23	2217.85
561.58	2203.38
561.94	2188.15
562.29	2173.11
562.64	2158.01
563.00	2143.04
563.35	2128.60
563.71	2113.93
564.06	2098.87
564.42	2084.32
564.77	2069.85
565.12	2055.77
565.48	2041.59
565.83	2027.01
566.19	2012.58
566.54	1998.67
566.89	1983.57
567.25	1967.95
567.60	1953.53
567.96	1938.57
568.31	1923.01
568.66	1908.24
569.02	1893.51
569.37	1878.88
569.72	1864.58
570.08	1850.14
570.43	1835.63
570.78	1820.36
571.14	1805.02
571.49	1790.20
571.84	1776.15
572.20	1760.84
572.55	1745.71
572.90	1730.06
573.26	1714.50
573.61	1698.59
573.96	1683.35
574.31	1668.76
574.67	1654.63
575.02	1639.69
575.37	1624.45
575.72	1609.13
576.08	1594.18
576.43	1579.28
576.78	1564.46
577.13	1549.69
577.49	1534.96
577.84	1520.14
578.19	1505.51
578.54	1490.95
578.90	1476.20
579.25	1460.95
579.60	1446.89
579.95	1432.79
580.30	1418.89
580.66	1405.02
581.01	1391.36
581.36	1377.54
581.71	1363.68
582.06	1349.83
582.42	1336.20
582.77	1322.89
583.12	1309.89
583.47	1296.72
583.82	1283.68
584.17	1270.66
584.53	1257.69
584.88	1245.13
585.23	1232.37
585.58	1219.89
585.93	1207.40
586.28	1195.54
586.63	1183.52
586.98	1171.38
587.34	1159.59
587.69	1147.56
588.04	1135.89
588.39	1124.34
588.74	1112.69
589.09	1101.39
589.44	1089.62
589.79	1078.39
590.14	1067.36
590.49	1056.40
590.84	1045.76
591.19	1035.15
591.54	1024.53
591.89	1013.69
592.25	1002.87
592.60	992.07
592.95	981.47
593.30	970.96
593.65	960.33
594.00	950.02
594.35	940.36
594.70	930.22
595.05	920.78
595.40	911.21
595.75	901.50
596.10	892.26
596.45	882.89
596.80	873.91
597.15	864.87
597.50	855.88
597.85	847.19
598.19	838.43
598.54	829.74
598.89	821.22
599.24	813.07
599.59	805.06
599.94	797.53
600.29	789.82
600.64	782.21
600.99	774.55
601.34	767.12
601.69	759.11
602.04	751.74
602.39	744.43
602.74	737.32
603.08	730.32
603.43	723.36
603.78	716.49
604.13	709.81
604.48	703.15
604.83	696.72
605.18	690.28
605.53	683.98
605.87	677.54
606.22	671.41
606.57	665.26
606.92	658.94
607.27	652.78
607.62	646.94
607.96	641.20
608.31	635.79
608.66	630.23
609.01	624.90
609.36	619.78
609.70	614.56
610.05	609.30
610.40	604.17
610.75	598.93
611.10	594.05
611.44	589.09
611.79	584.23
612.14	579.33
612.49	574.41
612.83	569.73
613.18	565.33
613.53	560.85
613.88	556.44
614.22	552.27
614.57	547.94
614.92	543.69
615.27	539.55
615.61	535.40
615.96	531.39
616.31	527.43
616.65	523.42
617.00	519.52
617.35	515.75
617.70	512.05
618.04	508.54
618.39	504.93
618.74	501.44
619.08	497.90
619.43	494.47
619.78	491.17
620.12	487.87
620.47	484.69
620.82	481.57
621.16	478.50
621.51	475.53
621.85	472.64
622.20	469.79
622.55	466.94
622.89	464.14
623.24	461.49
623.59	458.85
623.93	456.30
624.28	453.82
624.62	451.51
624.97	449.20
625.32	446.75
625.66	444.27
626.01	441.89
626.35	439.70
626.70	437.41
627.04	435.28
627.39	433.05
627.73	430.87
628.08	428.80
628.43	426.78
628.77	424.75
629.12	422.84
629.46	420.88
629.81	419.08
630.15	417.19
630.50	415.31
630.84	413.51
631.19	411.78
631.53	410.12
631.88	408.27
632.22	406.51
632.57	405.07
632.91	403.61
633.26	402.20
633.60	400.74
633.95	399.35
634.29	397.88
634.64	396.50
634.98	394.97
635.32	393.58
635.67	392.26
636.01	390.95
636.36	389.66
636.70	388.51
637.05	387.21
637.39	386.06
637.73	384.91
638.08	383.78
638.42	382.63
638.77	381.37
639.11	380.12
639.45	378.95
639.80	377.73
640.14	376.58
640.49	375.39
640.83	374.23
641.17	373.10
641.52	371.98
641.86	370.93
642.20	370.05
642.55	369.00
642.89	367.96
643.23	366.93
643.58	366.01
643.92	364.94
644.26	363.94
644.61	363.01
644.95	362.04
645.29	361.05
645.64	360.06
645.98	359.13
646.32	358.28
646.66	357.37
647.01	356.44
647.35	355.59
647.69	354.71
648.04	353.89
648.38	353.03
648.72	352.23
649.06	351.43
649.41	350.59
649.75	349.78
650.09	349.04
650.43	348.29
650.78	347.48
651.12	346.72
651.46	345.98
651.80	345.24
652.14	344.49
652.49	343.81
652.83	343.07
653.17	342.36
653.51	341.67
653.85	341.07
654.20	340.44
654.54	339.73
654.88	339.07
655.22	338.42
655.56	337.71
655.90	337.01
656.25	336.32
656.59	335.65
656.93	335.05
657.27	334.45
657.61	333.78
657.95	333.19
658.29	332.59
658.64	332.04
658.98	331.42
659.32	330.82
659.66	330.25
660.00	329.70
660.34	329.13
660.68	328.54
661.02	327.89
661.36	327.27
661.70	326.68
662.05	326.12
662.39	325.60
662.73	325.16
663.07	324.75
663.41	324.26
663.75	323.72
664.09	323.16
664.43	322.55
664.77	322.04
665.11	321.44
665.45	320.90
665.79	320.35
666.13	319.81
666.47	319.27
666.81	318.68
667.15	318.08
667.49	317.59
667.83	317.14
668.17	316.69
668.51	316.24
668.85	315.82
669.19	315.45
669.53	314.92
669.87	314.41
670.21	313.91
670.55	313.45
670.89	313.10
671.23	312.66
671.57	312.23
671.91	311.85
672.25	311.49
672.58	311.12
672.92	310.66
673.26	310.27
673.60	309.87
673.94	309.50
674.28	309.14
674.62	308.75
674.96	308.31
675.30	307.89
675.64	307.47
675.97	307.02
676.31	306.51
676.65	306.08
676.99	305.71
677.33	305.24
677.67	304.78
678.01	304.22
678.34	303.79
678.68	303.38
679.02	302.90
679.36	302.46
679.70	301.99
680.04	301.56
680.37	301.11
680.71	300.69
681.05	300.28
681.39	299.85
681.73	299.37
682.06	298.91
682.40	298.48
682.74	298.09
683.08	297.73
683.42	297.28
683.75	296.86
684.09	296.35
684.43	295.88
684.77	295.42
685.10	295.04
685.44	294.65
685.78	294.23
686.12	293.82
686.45	293.35
686.79	292.90
687.13	292.48
687.46	292.02
687.80	291.58
688.14	291.08
688.48	290.64
688.81	290.23
689.15	289.87
689.49	289.40
689.82	288.93
690.16	288.40
690.50	287.98
690.83	287.55
691.17	287.10
691.51	286.70
691.84	286.33
692.18	285.89
692.52	285.41
692.85	284.98
693.19	284.63
693.52	284.25
693.86	283.83
694.20	283.42
694.53	283.02
694.87	282.58
695.21	282.16
695.54	281.74
695.88	281.28
696.21	280.77
696.55	280.34
696.88	279.91
697.22	279.49
697.56	279.10
697.89	278.63
698.23	278.23
698.56	277.77
698.90	277.36
699.23	276.90
699.57	276.50
699.90	276.06
700.24	275.56
700.58	275.14
700.91	274.77
701.25	274.52
701.58	274.20
701.92	273.87
702.25	273.51
702.59	273.12
702.92	272.75
703.26	272.37
703.59	271.98
703.93	271.75
704.26	271.40
704.60	271.00
704.93	270.60
705.26	270.21
705.60	269.88
705.93	269.45
706.27	269.13
706.60	268.80
706.94	268.49
707.27	268.09
707.61	267.71
707.94	267.31
708.27	266.78
708.61	266.34
708.94	265.92
709.28	265.56
709.61	265.18
709.94	264.85
710.28	264.53
710.61	264.24
710.95	263.77
711.28	263.56
711.61	263.24
711.95	262.97
712.28	262.63
712.61	262.27
712.95	262.03
713.28	261.78
713.61	261.42
713.95	261.06
714.28	260.78
714.61	260.45
714.95	260.13
715.28	259.83
715.61	259.52
715.95	259.25
716.28	258.95
716.61	258.66
716.95	258.34
717.28	258.01
717.61	257.68
717.94	257.39
718.28	256.95
718.61	256.66
718.94	256.34
719.27	256.06
719.61	255.82
719.94	255.52
720.27	255.16
720.60	254.89
720.94	254.63
721.27	254.38
721.60	254.15
721.93	253.88
722.27	253.67
722.60	253.45
722.93	253.17
723.26	252.95
723.59	252.68
723.93	252.47
724.26	252.27
724.59	252.03
724.92	251.81
725.25	251.64
725.59	251.40
725.92	251.21
726.25	251.00
726.58	250.77
726.91	250.54
727.24	250.34
727.57	250.13
727.91	249.89
728.24	249.70
728.57	249.47
728.90	249.30
729.23	249.04
729.56	248.92
729.89	248.72
730.22	248.50
730.55	248.31
730.89	248.10
731.22	247.88
731.55	247.68
731.88	247.48
732.21	247.26
732.54	247.07
732.87	246.87
733.20	246.69
733.53	246.50
733.86	246.33
734.19	246.13
734.52	245.97
734.85	245.92
735.18	245.71
735.51	245.59
735.84	245.42
736.17	245.30
736.50	245.02
736.83	245.06
737.16	244.89
737.49	244.73
737.82	244.57
738.15	244.43
738.48	244.27
738.81	244.10
739.14	243.92
739.47	243.75
739.80	243.58
740.13	243.46
740.46	243.29
740.79	243.12
741.12	242.97
741.45	242.78
741.78	242.53
742.11	242.44
742.44	242.25
742.77	242.13
743.10	241.96
743.43	241.82
743.75	241.48
744.08	241.61
744.41	241.45
744.74	241.31
745.07	241.12
745.40	241.02
745.73	240.96
746.06	240.84
746.39	240.75
746.71	240.61
747.04	240.44
747.37	240.30
747.70	240.20
748.03	240.08
748.36	239.98
748.68	239.85
749.01	239.67
749.34	239.56
749.67	239.43
750.00	239.34
750.33	239.36
750.65	239.26
750.98	238.89
751.31	238.78
751.64	238.67
751.97	238.67
752.29	238.53
752.62	238.34
752.95	238.22
753.28	238.07
753.60	237.95
753.93	237.89
754.26	237.79
754.59	237.62
754.91	237.49
755.24	237.36
755.57	237.27
755.90	237.15
756.22	237.02
756.55	236.88
756.88	236.74
757.20	236.51
757.53	236.37
757.86	236.26
758.19	236.17
758.51	236.07
758.84	235.88
759.17	235.77
759.49	235.69
759.82	235.69
760.15	235.62
760.47	235.52
760.80	235.38
761.13	235.32
761.45	235.23
761.78	235.15
762.11	235.07
762.43	234.97
762.76	234.89
763.08	234.83
763.41	234.76
763.74	234.68
764.06	234.60
764.39	234.53
764.71	234.44
765.04	234.36
765.37	234.27
765.69	234.20
766.02	234.13
766.34	234.04
766.67	233.89
767.00	233.85
767.32	233.89
767.65	233.94
767.97	233.85
768.30	233.80
768.62	233.74
768.95	233.65
769.27	233.58
769.60	233.55
769.92	233.45
770.25	233.37
770.57	233.28
770.90	233.22
771.22	233.15
771.55	233.11
771.87	233.06
772.20	232.99
772.52	233.09
772.85	233.24
773.17	233.19
773.50	233.13
773.82	233.03
774.15	232.88
774.47	232.72
774.80	232.65
775.12	232.60
775.45	232.54
775.77	232.53
776.09	232.50
776.42	232.45
776.74	232.47
777.07	232.42
777.39	232.38
777.72	232.32
778.04	232.30
778.36	232.23
778.69	232.19
779.01	232.17
779.33	231.98
779.66	231.73
779.98	231.68
780.31	231.66
780.63	231.70
780.95	231.71
781.28	231.68
781.60	231.63
781.92	231.59
782.25	231.57
782.57	231.51
782.89	231.47
783.22	231.41
783.54	231.33
783.86	231.31
784.19	231.28
784.51	231.31
784.83	231.26
785.16	231.23
785.48	231.20
785.80	231.17
786.12	231.16
786.45	231.14
786.77	231.13
787.09	231.09
787.42	230.99
787.74	230.96
788.06	230.94
788.38	230.92
788.71	230.88
789.03	230.86
789.35	230.85
789.67	230.80
789.99	230.80
790.32	230.77
790.64	230.76
790.96	230.89
791.28	230.80
791.61	230.78
791.93	230.77
792.25	230.73
792.57	230.83
792.89	230.77
793.21	230.76
793.54	230.71
793.86	230.67
794.18	230.66
794.50	230.60
794.82	230.58
795.14	230.58
795.47	230.59
795.79	230.56
796.11	230.50
796.43	230.47
796.75	230.45
797.07	230.43
797.39	230.40
797.71	230.24
798.04	230.23
798.36	230.22
798.68	230.19
799.00	230.19
799.32	230.07
799.64	230.09
799.96	230.07
800.28	230.09
800.60	230.06
800.92	230.05
801.24	230.02
801.56	230.02
801.89	229.97
802.21	229.95
802.53	229.92
802.85	229.93
803.17	230.01
803.49	229.94
803.81	229.91
804.13	229.88
804.45	229.83
804.77	229.82
805.09	229.80
805.41	229.77
805.73	229.71
806.05	229.66
806.37	229.62
806.69	229.59
807.01	229.55
807.33	229.54
807.65	229.47
807.97	229.53
808.28	229.49
808.60	229.47
808.92	229.43
809.24	229.52
809.56	229.48
809.88	229.40
810.20	229.40
810.52	229.42
810.84	229.39
811.16	229.37
811.48	229.34
811.80	229.38
812.12	229.35
812.43	229.38
812.75	229.37
813.07	229.33
813.39	229.32
813.71	229.28
814.03	229.25
814.35	229.25
814.67	229.17
814.98	229.15
815.30	229.13
815.62	229.09
815.94	228.96
816.26	228.96
816.58	228.90
816.89	228.90
817.21	228.84
817.53	228.83
817.85	228.82
818.17	228.80
818.48	228.73
818.80	228.76
819.12	228.71
819.44	228.67
819.76	228.65
820.07	228.65
820.39	228.64
820.71	228.65
821.03	228.64
821.34	228.62
821.66	228.62
821.98	228.63
822.30	228.61
822.61	228.73
822.93	228.69
823.25	228.70
823.57	228.67
823.88	228.70
824.20	228.70
824.52	228.73
824.83	228.71
825.15	228.68
825.47	228.67
825.79	228.68
826.10	228.67
826.42	228.66
826.74	228.65
827.05	228.64
827.37	228.63
827.69	228.62
828.00	228.61
828.32	228.59
828.64	228.57
828.95	228.66
829.27	228.60
829.58	228.59
829.90	228.61
830.22	228.60
830.53	228.56
830.85	228.52
831.17	228.46
831.48	228.45
831.80	228.46
832.11	228.44
832.43	228.41
832.75	228.40
833.06	228.48
833.38	228.43
833.69	228.43
834.01	228.42
834.32	228.40
834.64	228.37
834.96	228.38
835.27	228.36
835.59	228.29
835.90	228.25
836.22	228.24
836.53	228.21
836.85	228.18
837.16	228.35
837.48	228.36
837.79	228.42
838.11	228.41
838.42	228.41
838.74	228.42
839.05	228.40
839.37	228.40
839.68	228.28
840.00	228.28
840.31	228.30
840.63	228.28
840.94	228.27
841.26	228.26
841.57	228.25
841.88	228.27
842.20	228.24
842.51	228.20
842.83	228.20
843.14	228.34
843.46	228.33
843.77	228.22
844.08	228.22
844.40	228.17
844.71	228.16
845.03	228.13
845.34	228.11
845.65	228.10
845.97	228.10
846.28	228.12
846.60	228.13
846.91	228.10
847.22	228.11
847.54	228.13
847.85	228.14
848.16	228.12
848.48	228.09
848.79	228.17
849.10	228.18
849.42	228.19
849.73	228.03
850.04	228.03
850.36	227.96
850.67	227.98
850.98	227.97
851.30	227.98
851.61	227.97
851.92	227.97
852.23	228.02
852.55	228.03
852.86	228.02
853.17	228.04
853.49	228.06
853.80	228.09
854.11	228.10
854.42	228.13
854.74	228.10
855.05	228.10
855.36	228.00
855.67	228.01
855.99	228.01
856.30	228.21
856.61	228.20
856.92	228.21
857.23	228.21
857.55	228.20
857.86	228.17
858.17	228.20
858.48	228.17
858.79	228.13
859.11	228.14
859.42	228.13
859.73	228.09
860.04	228.08
860.35	228.03
860.66	227.97
860.98	227.94
861.29	227.96
861.60	227.96
861.91	228.00
862.22	227.97
862.53	227.94
862.84	227.73
863.16	227.77
863.47	227.73
863.78	227.70
864.09	227.70
864.40	227.71
864.71	227.71
865.02	227.72
865.33	227.69
865.64	227.66
865.95	227.66
866.27	227.77
866.58	227.74
866.89	227.76
867.20	227.76
867.51	227.73
867.82	227.72
868.13	227.75
868.44	227.72
868.75	227.74
869.06	227.76
869.37	227.78
869.68	227.72
869.99	227.75
870.30	227.77
870.61	227.80
870.92	227.78
871.23	227.77
871.54	227.80
871.85	227.86
872.16	227.88
872.47	227.87
872.78	227.77
873.09	227.79
873.40	227.78
873.71	227.79
874.02	227.82
874.33	227.79
874.64	227.76
874.95	227.79
875.26	227.74
875.56	227.74
875.87	227.72
876.18	227.72
876.49	227.90
876.80	227.87
877.11	227.84
877.42	227.84
877.73	227.85
878.04	227.81
878.35	227.80
878.66	227.80
878.96	227.80
879.27	227.78
879.58	227.78
879.89	227.77
880.20	227.83
880.51	227.81
880.82	227.82
881.12	227.82
881.43	227.79
881.74	227.78
882.05	227.77
882.36	227.78
882.67	227.79
882.97	227.60
883.28	227.60
883.59	227.60
883.90	227.61
884.21	227.63
884.51	227.62
884.82	227.60
885.13	227.59
885.44	227.59
885.74	227.60
886.05	227.58
886.36	227.58
886.67	227.51
886.98	227.60
887.28	227.62
887.59	227.62
887.90	227.63
888.20	227.63
888.51	227.67
888.82	227.65
889.13	227.67
889.43	227.82
889.74	227.80
890.05	227.80
890.35	227.78
890.66	227.74
890.97	227.72
891.28	227.71
891.58	227.71
891.89	227.70
892.20	227.67
892.50	227.65
892.81	227.65
893.12	227.65
893.42	227.56
893.73	227.56
894.04	227.56
894.34	227.57
894.65	227.56
894.95	227.53
895.26	227.54
895.57	227.62
895.87	227.44
896.18	227.48
896.48	227.48
896.79	227.48
897.10	227.51
897.40	227.52
897.71	227.54
898.01	227.53
898.32	227.55
898.63	227.55
898.93	227.56
899.24	227.57
899.54	227.56
899.85	227.55
900.15	227.55
900.46	227.53
900.76	227.54
901.07	227.55
901.38	227.54
901.68	227.55
901.99	227.46
902.29	227.47
902.60	227.45
902.90	227.44
903.21	227.43
903.51	227.40
903.82	227.43
904.12	227.43
904.43	227.44
904.73	227.43
905.03	227.45
905.34	227.62
905.64	227.61
905.95	227.61
906.25	227.60
906.56	227.59
906.86	227.59
907.17	227.57
907.47	227.58
907.77	227.56
908.08	227.52
908.38	227.54
908.69	227.55
908.99	227.58
909.30	227.60
909.60	227.61
909.90	227.62
910.21	227.57
910.51	227.55
910.81	227.55
911.12	227.56
911.42	227.56
911.73	227.36
912.03	227.37
912.33	227.41
912.64	227.40
912.94	227.39
913.24	227.37
913.55	227.36
913.85	227.36
914.15	227.40
914.46	227.42
914.76	227.40
915.06	227.38
915.37	227.35
915.67	227.33
915.97	227.33
916.27	227.30
916.58	227.31
916.88	227.29
917.18	227.29
917.49	227.41
917.79	227.39
918.09	227.42
918.39	227.47
918.70	227.45
919.00	227.45
919.30	227.55
919.60	227.53
919.91	227.52
920.21	227.51
920.51	227.46
920.81	227.46
921.12	227.48
921.42	227.48
921.72	227.50
922.02	227.52
922.32	227.55
922.63	227.55
922.93	227.65
923.23	227.67
923.53	227.65
923.83	227.53
924.13	227.55
924.44	227.55
924.74	227.56
925.04	227.61
925.34	227.61
925.64	227.53
925.94	227.53
926.24	227.62
926.55	227.62
926.85	227.65
927.15	227.63
927.45	227.63
927.75	227.62
928.05	227.62
928.35	227.61
928.65	227.63
928.95	227.65
929.26	227.56
929.56	227.59
929.86	227.61
930.16	227.60
930.46	227.58
930.76	227.59
931.06	227.51
931.36	227.46
931.66	227.49
931.96	227.51
932.26	227.53
932.56	227.44
932.86	227.45
933.16	227.45
933.46	227.45
933.76	227.42
934.06	227.46
934.36	227.51
934.66	227.50
934.96	227.47
935.26	227.47
935.56	227.51
935.86	227.47
936.16	227.44
936.46	227.42
936.76	227.41
937.06	227.39
937.36	227.40
937.66	227.42
937.96	227.40
938.26	227.36
938.56	227.35
938.86	227.35
939.16	227.39
939.46	227.40
939.76	227.40
940.06	227.39
940.35	227.36
940.65	227.28
940.95	227.29
941.25	227.25
941.55	227.23
941.85	227.20
942.15	227.24
942.45	227.30
942.75	227.31
943.04	227.31
943.34	227.34
943.64	227.32
943.94	227.29
944.24	227.31
944.54	227.33
944.84	227.33
945.13	227.31
945.43	227.29
945.73	227.27
946.03	227.26
946.33	227.26
946.62	227.25
946.92	227.25
947.22	227.26
947.52	227.29
947.82	227.31
948.11	227.30
948.41	227.25
948.71	227.18
949.01	227.19
949.31	227.17
949.60	227.15
949.90	227.19
950.20	227.18
950.50	227.15
950.79	227.14
951.09	227.16
951.39	227.16
951.69	227.13
951.98	227.17
952.28	227.18
952.58	227.18
952.87	227.18
953.17	227.20
953.47	227.17
953.76	227.16
954.06	227.12
954.36	227.10
954.66	227.11
954.95	227.16
955.25	227.17
955.55	227.20
955.84	227.16
956.14	227.17
956.44	227.19
956.73	227.17
957.03	227.18
957.32	227.17
957.62	227.17
957.92	227.21
958.21	227.19
958.51	227.39
958.81	227.41
959.10	227.42
959.40	227.45
959.69	227.47
959.99	227.49
960.29	227.49
960.58	227.48
960.88	227.55
961.17	227.52
961.47	227.54
961.76	227.53
962.06	227.56
962.36	227.53
962.65	227.54
962.95	227.55
963.24	227.53
963.54	227.54
963.83	227.55
964.13	227.54
964.42	227.53
964.72	227.38
965.01	227.39
965.31	227.38
965.60	227.34
965.90	227.45
966.19	227.41
966.49	227.43
966.78	227.43
967.08	227.40
967.37	227.42
967.67	227.39
967.96	227.43
968.26	227.42
968.55	227.45
968.85	227.44
969.14	227.44
969.43	227.43
969.73	227.42
970.02	227.40
970.32	227.39
970.61	227.35
970.91	227.29
971.20	227.26
971.49	227.26
971.79	227.28
972.08	227.16
972.38	227.18
972.67	227.17
972.96	227.20
973.26	227.17
973.55	227.21
973.85	227.21
974.14	227.19
974.43	227.21
974.73	227.17
975.02	227.16
975.31	227.17
975.61	227.17
975.90	227.16
976.19	227.16
976.49	227.18
976.78	227.19
977.07	227.19
977.37	227.20
977.66	227.22
977.95	227.19
978.24	227.20
978.54	227.24
978.83	227.23
979.12	227.22
979.42	227.22
979.71	227.18
980.00	227.17
980.29	227.18
980.59	227.14
980.88	227.20
981.17	227.19
981.46	227.19
981.76	227.19
982.05	227.25
982.34	227.26
982.63	227.25
982.93	227.26
983.22	227.30
983.51	227.32
983.80	227.33
984.09	227.37
984.39	227.36
984.68	227.33
984.97	227.35
985.26	227.33
985.55	227.34
985.85	227.31
986.14	227.35
986.43	227.36
986.72	227.36
987.01	227.29
987.30	227.30
987.59	227.28
987.89	227.29
988.18	227.23
988.47	227.22
988.76	227.21
989.05	227.19
989.34	227.17
989.63	227.21
989.92	227.19
990.22	227.16
990.51	227.15
990.80	227.13
991.09	227.15
991.38	227.17
991.67	227.14
991.96	227.14
992.25	227.12
992.54	227.09
992.83	227.08
993.12	227.09
993.41	227.11
993.70	227.17
993.99	227.20
994.28	227.22
994.58	227.25
994.87	227.23
995.16	227.23
995.45	227.20
995.74	227.14
996.03	227.16
996.32	227.19
996.61	227.22
996.90	227.22
997.19	227.20
997.48	227.21
997.77	227.19
998.06	227.19
998.34	227.17
998.63	227.17
998.92	227.19
999.21	227.23
999.50	227.23
999.79	227.17
1000.08	227.17
1000.37	227.17
1000.66	227.15
1000.95	227.20
1001.24	227.21
1001.53	227.24
1001.82	227.25
1002.11	227.21
1002.40	227.22
1002.68	227.26
1002.97	227.38
1003.26	227.36
1003.55	227.33
1003.84	227.35
1004.13	227.42
1004.42	227.43
1004.71	227.44
1004.99	227.43
1005.28	227.45
1005.57	227.44
1005.86	227.42
1006.15	227.41
1006.44	227.39
1006.72	227.42
1007.01	227.38
1007.30	227.38
1007.59	227.37
1007.88	227.37
1008.17	227.38
1008.45	227.34
1008.74	227.26
1009.03	227.19
1009.32	227.19
1009.60	227.20
1009.89	227.19
1010.18	227.11
1010.47	227.10
1010.76	227.09
1011.04	227.10
1011.33	227.09
1011.62	227.10
1011.91	227.12
1012.19	227.11
1012.48	227.12
1012.77	227.11
1013.05	227.18
1013.34	227.17
1013.63	227.15
1013.92	227.16
1014.20	227.14
1014.49	227.16
1014.78	227.18
1015.06	227.12
1015.35	227.12
1015.64	227.14
1015.92	227.17
1016.21	227.17
1016.50	227.16
1016.78	227.20
1017.07	227.20
1017.36	227.17
1017.64	227.14
1017.93	227.16
1018.22	227.14
1018.50	227.13
1018.79	227.12
1019.08	227.05
1019.36	227.06
1019.65	227.05
1019.93	227.08
1020.22	227.12
1020.51	227.21
1020.79	227.18
1021.08	226.74
1021.36	226.79
1021.65	227.03
1021.94	227.15
1022.22	227.07
1022.51	226.81
1022.79	227.81
1023.08	227.49
1023.36	229.15
1023.65	226.80
>>>>>End Processed Spectral Data<<<<<
