SpectraSuite Data File
++++++++++++++++++++++++++++++++++++
Date: Tue Oct 06 11:56:36 EDT 2015
User: lab3
Dark Spectrum Present: No
Reference Spectrum Present: No
Number of Sampled Component Spectra: 1
Spectrometers: USB2E7196
Integration Time (usec): 66000 (USB2E7196)
Spectra Averaged: 1000 (USB2E7196)
Boxcar Smoothing: 10 (USB2E7196)
Correct for Electrical Dark: No (USB2E7196)
Strobe/Lamp Enabled: No (USB2E7196)
Correct for Detector Non-linearity: No (USB2E7196)
Correct for Stray Light: No (USB2E7196)
Number of Pixels in Processed Spectrum: 2048
>>>>>Begin Processed Spectral Data<<<<<
339.09	0.00
339.48	216.51
339.86	218.02
340.24	219.35
340.63	220.94
341.01	224.65
341.39	223.80
341.78	225.07
342.16	226.39
342.54	226.68
342.93	215.07
343.31	225.94
343.69	226.48
344.07	226.96
344.46	227.41
344.84	227.82
345.22	228.03
345.60	228.29
345.99	228.49
346.37	228.64
346.75	228.75
347.13	228.83
347.52	228.91
347.90	229.03
348.28	229.07
348.66	229.16
349.05	229.14
349.43	229.22
349.81	229.30
350.19	229.36
350.57	229.44
350.96	229.54
351.34	229.64
351.72	229.73
352.10	229.84
352.48	229.91
352.87	229.95
353.25	230.03
353.63	230.08
354.01	230.14
354.39	230.22
354.77	230.30
355.15	230.42
355.54	230.45
355.92	230.44
356.30	230.52
356.68	230.68
357.06	230.76
357.44	230.78
357.82	230.84
358.20	231.05
358.58	231.11
358.97	231.17
359.35	231.25
359.73	231.35
360.11	231.40
360.49	231.47
360.87	231.52
361.25	231.57
361.63	231.68
362.01	231.74
362.39	231.76
362.77	231.80
363.15	231.82
363.53	231.86
363.91	231.91
364.29	231.93
364.67	231.80
365.05	231.82
365.43	231.86
365.81	231.89
366.19	231.85
366.57	231.93
366.95	231.92
367.33	231.89
367.71	231.89
368.09	231.92
368.47	231.90
368.85	231.89
369.23	231.93
369.61	231.84
369.99	231.86
370.37	231.87
370.75	231.98
371.13	231.94
371.51	231.91
371.89	231.88
372.27	231.87
372.65	231.86
373.03	231.82
373.41	231.76
373.78	231.72
374.16	231.58
374.54	231.49
374.92	231.43
375.30	231.40
375.68	231.32
376.06	231.29
376.44	231.24
376.82	231.21
377.19	231.16
377.57	231.11
377.95	231.01
378.33	230.96
378.71	230.76
379.09	230.74
379.47	230.71
379.84	230.65
380.22	230.58
380.60	230.50
380.98	230.46
381.36	230.41
381.73	230.34
382.11	230.34
382.49	230.31
382.87	230.24
383.25	230.21
383.62	230.37
384.00	230.29
384.38	230.26
384.76	230.25
385.13	230.26
385.51	230.23
385.89	230.18
386.27	230.15
386.64	230.14
387.02	230.09
387.40	230.05
387.78	230.02
388.15	230.01
388.53	229.98
388.91	229.95
389.29	229.93
389.66	229.93
390.04	229.88
390.42	229.89
390.79	229.90
391.17	229.87
391.55	229.66
391.92	229.66
392.30	229.67
392.68	229.62
393.05	229.60
393.43	229.61
393.81	229.63
394.18	229.62
394.56	229.63
394.94	229.69
395.31	229.68
395.69	229.76
396.06	229.81
396.44	229.86
396.82	229.89
397.19	230.01
397.57	230.03
397.95	230.10
398.32	230.10
398.70	230.17
399.07	230.26
399.45	230.33
399.82	230.39
400.20	230.45
400.58	230.54
400.95	230.56
401.33	230.70
401.70	230.92
402.08	231.05
402.45	231.18
402.83	231.34
403.20	231.51
403.58	231.66
403.95	231.85
404.33	232.06
404.71	232.27
405.08	232.58
405.46	232.82
405.83	233.11
406.21	233.40
406.58	233.74
406.96	234.06
407.33	234.44
407.70	234.86
408.08	235.44
408.45	235.95
408.83	236.50
409.20	236.99
409.58	237.45
409.95	238.08
410.33	238.76
410.70	239.40
411.08	240.16
411.45	240.96
411.82	241.77
412.20	242.71
412.57	243.82
412.95	244.70
413.32	245.85
413.69	247.03
414.07	248.29
414.44	249.66
414.82	251.07
415.19	252.72
415.56	254.40
415.94	256.14
416.31	258.09
416.68	260.06
417.06	262.33
417.43	264.47
417.81	266.93
418.18	269.42
418.55	272.17
418.93	275.03
419.30	278.02
419.67	281.19
420.04	284.46
420.42	287.88
420.79	291.80
421.16	295.78
421.54	299.82
421.91	304.03
422.28	308.39
422.66	313.09
423.03	317.56
423.40	322.27
423.77	327.31
424.15	332.45
424.52	337.78
424.89	343.55
425.26	349.28
425.64	354.60
426.01	360.59
426.38	366.72
426.75	372.99
427.13	379.40
427.50	386.12
427.87	393.06
428.24	400.05
428.61	406.78
428.99	414.01
429.36	422.00
429.73	429.65
430.10	437.27
430.47	445.07
430.85	453.16
431.22	461.75
431.59	470.56
431.96	479.15
432.33	488.73
432.70	497.85
433.08	508.67
433.45	518.87
433.82	528.88
434.19	540.06
434.56	551.08
434.93	561.77
435.30	572.36
435.68	584.42
436.05	596.21
436.42	608.00
436.79	618.75
437.16	630.35
437.53	642.82
437.90	655.32
438.27	667.50
438.64	680.59
439.01	692.56
439.38	703.62
439.75	714.28
440.13	726.37
440.50	737.90
440.87	747.02
441.24	757.01
441.61	768.04
441.98	776.12
442.35	785.72
442.72	795.51
443.09	804.89
443.46	811.02
443.83	815.60
444.20	819.34
444.57	824.91
444.94	828.27
445.31	831.61
445.68	834.43
446.05	836.54
446.42	836.18
446.79	835.54
447.16	834.96
447.53	834.54
447.90	830.97
448.27	827.39
448.64	821.93
449.01	818.25
449.37	810.56
449.74	803.67
450.11	794.72
450.48	784.89
450.85	774.97
451.22	766.33
451.59	757.93
451.96	750.40
452.33	739.43
452.70	729.62
453.07	717.77
453.43	706.02
453.80	694.57
454.17	683.61
454.54	673.43
454.91	661.93
455.28	650.99
455.65	640.60
456.02	629.76
456.38	621.03
456.75	609.79
457.12	600.71
457.49	591.51
457.86	582.91
458.23	575.32
458.59	566.95
458.96	558.38
459.33	550.85
459.70	543.20
460.07	537.27
460.43	530.33
460.80	523.83
461.17	518.13
461.54	512.01
461.91	506.34
462.27	500.55
462.64	495.79
463.01	490.39
463.38	485.02
463.74	480.18
464.11	475.88
464.48	471.99
464.85	467.75
465.21	464.52
465.58	460.89
465.95	456.80
466.32	453.49
466.68	450.27
467.05	447.02
467.42	443.83
467.78	440.47
468.15	437.35
468.52	435.07
468.88	432.07
469.25	429.36
469.62	427.17
469.98	424.77
470.35	422.63
470.72	420.72
471.08	418.72
471.45	417.03
471.82	415.15
472.18	413.21
472.55	411.96
472.92	410.40
473.28	409.18
473.65	407.87
474.02	406.66
474.38	405.62
474.75	404.99
475.11	404.12
475.48	403.71
475.85	403.29
476.21	403.05
476.58	402.86
476.94	403.07
477.31	403.11
477.67	403.26
478.04	403.58
478.41	404.00
478.77	404.62
479.14	405.00
479.50	405.79
479.87	406.79
480.23	407.80
480.60	408.76
480.96	409.73
481.33	411.16
481.69	412.60
482.06	414.04
482.42	415.37
482.79	417.01
483.15	418.92
483.52	421.05
483.88	423.11
484.25	425.33
484.61	427.62
484.98	430.07
485.34	432.85
485.71	435.75
486.07	438.83
486.44	441.85
486.80	445.26
487.17	448.74
487.53	452.57
487.90	456.55
488.26	460.90
488.62	465.48
488.99	470.09
489.35	474.95
489.72	480.19
490.08	485.65
490.44	491.20
490.81	496.96
491.17	502.89
491.54	509.19
491.90	515.65
492.26	522.49
492.63	529.65
492.99	537.10
493.36	544.82
493.72	552.97
494.08	561.28
494.45	570.00
494.81	579.09
495.17	588.40
495.54	598.21
495.90	608.47
496.26	618.97
496.63	629.69
496.99	640.78
497.35	652.35
497.72	664.29
498.08	676.65
498.44	689.26
498.80	702.69
499.17	716.45
499.53	730.63
499.89	745.26
500.26	759.96
500.62	774.93
500.98	790.63
501.34	806.48
501.71	823.09
502.07	840.00
502.43	857.36
502.79	874.80
503.16	892.71
503.52	910.80
503.88	929.35
504.24	948.31
504.60	967.57
504.97	987.23
505.33	1007.35
505.69	1028.50
506.05	1049.69
506.41	1070.66
506.78	1091.98
507.14	1114.07
507.50	1136.60
507.86	1159.69
508.22	1182.87
508.59	1205.84
508.95	1229.61
509.31	1253.83
509.67	1278.53
510.03	1303.13
510.39	1327.97
510.75	1352.99
511.12	1378.20
511.48	1403.31
511.84	1428.50
512.20	1454.04
512.56	1480.13
512.92	1506.03
513.28	1531.40
513.64	1557.24
514.00	1583.10
514.37	1609.20
514.73	1635.15
515.09	1660.49
515.45	1685.91
515.81	1711.30
516.17	1736.80
516.53	1761.63
516.89	1786.44
517.25	1811.40
517.61	1836.19
517.97	1861.20
518.33	1885.50
518.69	1909.57
519.05	1933.86
519.41	1958.10
519.77	1982.18
520.13	2005.79
520.49	2029.31
520.85	2052.99
521.21	2076.22
521.57	2099.92
521.93	2122.29
522.29	2144.99
522.65	2167.35
523.01	2189.59
523.37	2211.11
523.73	2232.91
524.09	2254.82
524.45	2276.44
524.81	2297.33
525.17	2317.81
525.53	2337.69
525.89	2358.04
526.25	2377.73
526.61	2396.24
526.97	2414.87
527.33	2433.17
527.68	2450.41
528.04	2467.05
528.40	2482.54
528.76	2498.54
529.12	2513.32
529.48	2528.81
529.84	2542.92
530.20	2557.87
530.56	2571.66
530.91	2585.67
531.27	2598.63
531.63	2610.46
531.99	2621.80
532.35	2631.98
532.71	2641.94
533.07	2652.25
533.42	2660.87
533.78	2670.32
534.14	2680.32
534.50	2688.75
534.86	2697.25
535.21	2703.74
535.57	2710.64
535.93	2717.93
536.29	2723.89
536.65	2729.78
537.00	2733.64
537.36	2737.89
537.72	2740.56
538.08	2743.08
538.44	2744.38
538.79	2746.25
539.15	2747.28
539.51	2747.86
539.87	2748.52
540.22	2747.56
540.58	2746.87
540.94	2746.11
541.29	2744.09
541.65	2740.44
542.01	2737.00
542.37	2732.47
542.72	2729.86
543.08	2725.51
543.44	2721.02
543.79	2715.01
544.15	2708.70
544.51	2703.24
544.87	2695.94
545.22	2688.11
545.58	2680.12
545.94	2672.75
546.29	2663.95
546.65	2655.05
547.01	2646.16
547.36	2636.87
547.72	2627.66
548.07	2617.01
548.43	2606.14
548.79	2594.38
549.14	2583.43
549.50	2572.32
549.86	2560.68
550.21	2547.45
550.57	2535.42
550.92	2521.28
551.28	2508.12
551.64	2495.57
551.99	2482.78
552.35	2469.95
552.70	2457.15
553.06	2444.77
553.41	2431.51
553.77	2417.57
554.13	2403.63
554.48	2389.17
554.84	2374.54
555.19	2360.42
555.55	2345.93
555.90	2331.37
556.26	2317.63
556.61	2302.92
556.97	2287.34
557.32	2272.26
557.68	2257.21
558.03	2241.76
558.39	2227.27
558.74	2212.88
559.10	2196.66
559.45	2181.01
559.81	2166.31
560.16	2151.20
560.52	2135.78
560.87	2121.02
561.23	2105.81
561.58	2090.95
561.94	2075.35
562.29	2059.88
562.64	2044.36
563.00	2029.17
563.35	2014.60
563.71	1999.68
564.06	1984.62
564.42	1970.14
564.77	1955.48
565.12	1941.27
565.48	1927.02
565.83	1912.93
566.19	1898.78
566.54	1884.97
566.89	1870.03
567.25	1854.69
567.60	1840.38
567.96	1825.53
568.31	1810.08
568.66	1795.34
569.02	1780.90
569.37	1766.71
569.72	1752.67
570.08	1738.71
570.43	1724.39
570.78	1709.48
571.14	1694.54
571.49	1680.07
571.84	1666.34
572.20	1651.50
572.55	1636.89
572.90	1621.83
573.26	1606.61
573.61	1591.31
573.96	1576.70
574.31	1562.63
574.67	1548.81
575.02	1534.10
575.37	1519.32
575.72	1504.74
576.08	1490.59
576.43	1476.22
576.78	1461.98
577.13	1447.82
577.49	1433.84
577.84	1419.87
578.19	1405.90
578.54	1392.08
578.90	1378.33
579.25	1363.96
579.60	1350.56
579.95	1337.31
580.30	1323.98
580.66	1310.78
581.01	1297.80
581.36	1284.56
581.71	1271.32
582.06	1258.00
582.42	1244.91
582.77	1232.24
583.12	1219.74
583.47	1207.15
583.82	1194.81
584.17	1182.37
584.53	1170.14
584.88	1158.02
585.23	1145.87
585.58	1134.05
585.93	1122.33
586.28	1111.08
586.63	1099.85
586.98	1088.54
587.34	1077.49
587.69	1066.33
588.04	1055.52
588.39	1044.81
588.74	1033.85
589.09	1023.26
589.44	1012.51
589.79	1002.27
590.14	992.14
590.49	982.14
590.84	972.34
591.19	962.57
591.54	952.86
591.89	942.74
592.25	932.89
592.60	922.98
592.95	913.34
593.30	903.66
593.65	893.90
594.00	884.44
594.35	875.72
594.70	866.46
595.05	857.89
595.40	849.11
595.75	840.05
596.10	831.68
596.45	823.16
596.80	814.90
597.15	806.68
597.50	798.50
597.85	790.58
598.19	782.66
598.54	774.68
598.89	766.92
599.24	759.58
599.59	752.29
599.94	745.50
600.29	738.49
600.64	731.63
600.99	724.67
601.34	717.90
601.69	710.62
602.04	703.91
602.39	697.29
602.74	690.81
603.08	684.58
603.43	678.31
603.78	672.17
604.13	666.13
604.48	660.07
604.83	654.22
605.18	648.40
605.53	642.67
605.87	636.93
606.22	631.39
606.57	625.80
606.92	620.06
607.27	614.46
607.62	609.14
607.96	603.91
608.31	599.01
608.66	594.03
609.01	589.25
609.36	584.60
609.70	579.80
610.05	575.03
610.40	570.38
610.75	565.73
611.10	561.33
611.44	556.83
611.79	552.51
612.14	548.19
612.49	543.82
612.83	539.65
613.18	535.65
613.53	531.72
613.88	527.79
614.22	524.11
614.57	520.28
614.92	516.52
615.27	512.82
615.61	509.19
615.96	505.61
616.31	502.02
616.65	498.47
617.00	495.06
617.35	491.73
617.70	488.45
618.04	485.27
618.39	482.11
618.74	479.13
619.08	476.04
619.43	473.02
619.78	470.07
620.12	467.19
620.47	464.45
620.82	461.70
621.16	459.02
621.51	456.46
621.85	453.95
622.20	451.48
622.55	449.03
622.89	446.60
623.24	444.30
623.59	442.03
623.93	439.83
624.28	437.73
624.62	435.84
624.97	433.92
625.32	431.84
625.66	429.76
626.01	427.71
626.35	425.80
626.70	423.86
627.04	422.10
627.39	420.22
627.73	418.41
628.08	416.70
628.43	415.03
628.77	413.26
629.12	411.62
629.46	409.99
629.81	408.48
630.15	406.86
630.50	405.26
630.84	403.78
631.19	402.35
631.53	400.93
631.88	399.28
632.22	397.74
632.57	396.53
632.91	395.28
633.26	394.12
633.60	392.91
633.95	391.73
634.29	390.44
634.64	389.29
634.98	387.99
635.32	386.84
635.67	385.74
636.01	384.68
636.36	383.65
636.70	382.75
637.05	381.64
637.39	380.70
637.73	379.76
638.08	378.86
638.42	377.91
638.77	376.91
639.11	375.89
639.45	374.91
639.80	373.88
640.14	372.91
640.49	371.91
640.83	370.92
641.17	369.98
641.52	369.07
641.86	368.18
642.20	367.44
642.55	366.51
642.89	365.62
643.23	364.74
643.58	363.95
643.92	362.99
644.26	362.13
644.61	361.35
644.95	360.54
645.29	359.64
645.64	358.75
645.98	357.92
646.32	357.21
646.66	356.43
647.01	355.64
647.35	354.91
647.69	354.13
648.04	353.42
648.38	352.67
648.72	351.97
649.06	351.28
649.41	350.52
649.75	349.81
650.09	349.16
650.43	348.49
650.78	347.75
651.12	347.09
651.46	346.45
651.80	345.79
652.14	345.12
652.49	344.53
652.83	343.90
653.17	343.26
653.51	342.64
653.85	342.10
654.20	341.49
654.54	340.84
654.88	340.21
655.22	339.60
655.56	338.91
655.90	338.24
656.25	337.56
656.59	336.92
656.93	336.35
657.27	335.82
657.61	335.21
657.95	334.68
658.29	334.11
658.64	333.58
658.98	332.95
659.32	332.34
659.66	331.77
660.00	331.22
660.34	330.69
660.68	330.11
661.02	329.47
661.36	328.89
661.70	328.33
662.05	327.79
662.39	327.29
662.73	326.88
663.07	326.47
663.41	325.99
663.75	325.45
664.09	324.92
664.43	324.31
664.77	323.80
665.11	323.18
665.45	322.62
665.79	322.07
666.13	321.54
666.47	321.01
666.81	320.45
667.15	319.84
667.49	319.32
667.83	318.87
668.17	318.38
668.51	317.90
668.85	317.46
669.19	317.09
669.53	316.57
669.87	316.04
670.21	315.53
670.55	315.06
670.89	314.68
671.23	314.21
671.57	313.76
671.91	313.35
672.25	312.96
672.58	312.60
672.92	312.11
673.26	311.70
673.60	311.28
673.94	310.87
674.28	310.51
674.62	310.11
674.96	309.62
675.30	309.20
675.64	308.75
675.97	308.27
676.31	307.74
676.65	307.26
676.99	306.88
677.33	306.38
677.67	305.91
678.01	305.36
678.34	304.92
678.68	304.46
679.02	303.96
679.36	303.50
679.70	302.99
680.04	302.57
680.37	302.14
680.71	301.69
681.05	301.25
681.39	300.78
681.73	300.29
682.06	299.82
682.40	299.37
682.74	298.97
683.08	298.63
683.42	298.19
683.75	297.77
684.09	297.24
684.43	296.78
684.77	296.31
685.10	295.90
685.44	295.48
685.78	295.05
686.12	294.64
686.45	294.18
686.79	293.73
687.13	293.30
687.46	292.83
687.80	292.37
688.14	291.87
688.48	291.42
688.81	290.96
689.15	290.59
689.49	290.14
689.82	289.67
690.16	289.11
690.50	288.64
690.83	288.19
691.17	287.72
691.51	287.28
691.84	286.89
692.18	286.45
692.52	285.98
692.85	285.53
693.19	285.13
693.52	284.69
693.86	284.24
694.20	283.81
694.53	283.36
694.87	282.89
695.21	282.43
695.54	281.99
695.88	281.56
696.21	281.04
696.55	280.60
696.88	280.15
697.22	279.69
697.56	279.28
697.89	278.79
698.23	278.39
698.56	277.95
698.90	277.51
699.23	277.05
699.57	276.63
699.90	276.20
700.24	275.73
700.58	275.31
700.91	274.95
701.25	274.69
701.58	274.36
701.92	274.04
702.25	273.70
702.59	273.30
702.92	272.91
703.26	272.52
703.59	272.13
703.93	271.89
704.26	271.54
704.60	271.13
704.93	270.75
705.26	270.33
705.60	269.98
705.93	269.55
706.27	269.23
706.60	268.90
706.94	268.58
707.27	268.18
707.61	267.81
707.94	267.39
708.27	266.86
708.61	266.41
708.94	266.00
709.28	265.63
709.61	265.26
709.94	264.92
710.28	264.61
710.61	264.29
710.95	263.82
711.28	263.60
711.61	263.28
711.95	263.00
712.28	262.68
712.61	262.33
712.95	262.10
713.28	261.85
713.61	261.50
713.95	261.14
714.28	260.85
714.61	260.52
714.95	260.23
715.28	259.93
715.61	259.64
715.95	259.36
716.28	259.04
716.61	258.78
716.95	258.45
717.28	258.13
717.61	257.81
717.94	257.51
718.28	257.10
718.61	256.81
718.94	256.49
719.27	256.24
719.61	256.00
719.94	255.70
720.27	255.35
720.60	255.08
720.94	254.83
721.27	254.58
721.60	254.35
721.93	254.09
722.27	253.89
722.60	253.67
722.93	253.42
723.26	253.21
723.59	252.94
723.93	252.75
724.26	252.55
724.59	252.33
724.92	252.13
725.25	251.97
725.59	251.75
725.92	251.57
726.25	251.35
726.58	251.14
726.91	250.91
727.24	250.71
727.57	250.49
727.91	250.24
728.24	250.05
728.57	249.84
728.90	249.67
729.23	249.43
729.56	249.31
729.89	249.12
730.22	248.90
730.55	248.72
730.89	248.51
731.22	248.30
731.55	248.10
731.88	247.91
732.21	247.69
732.54	247.49
732.87	247.30
733.20	247.12
733.53	246.95
733.86	246.80
734.19	246.61
734.52	246.48
734.85	246.45
735.18	246.26
735.51	246.16
735.84	246.00
736.17	245.88
736.50	245.61
736.83	245.64
737.16	245.49
737.49	245.35
737.82	245.18
738.15	245.05
738.48	244.91
738.81	244.75
739.14	244.58
739.47	244.42
739.80	244.27
740.13	244.14
740.46	243.95
740.79	243.77
741.12	243.63
741.45	243.44
741.78	243.18
742.11	243.09
742.44	242.89
742.77	242.76
743.10	242.60
743.43	242.47
743.75	242.15
744.08	242.28
744.41	242.12
744.74	241.98
745.07	241.81
745.40	241.71
745.73	241.66
746.06	241.54
746.39	241.44
746.71	241.29
747.04	241.15
747.37	241.02
747.70	240.93
748.03	240.80
748.36	240.71
748.68	240.59
749.01	240.42
749.34	240.31
749.67	240.18
750.00	240.09
750.33	240.10
750.65	240.01
750.98	239.64
751.31	239.53
751.64	239.45
751.97	239.44
752.29	239.30
752.62	239.11
752.95	238.99
753.28	238.85
753.60	238.74
753.93	238.68
754.26	238.60
754.59	238.44
754.91	238.32
755.24	238.20
755.57	238.17
755.90	238.07
756.22	237.96
756.55	237.84
756.88	237.71
757.20	237.49
757.53	237.34
757.86	237.24
758.19	237.16
758.51	237.05
758.84	236.86
759.17	236.77
759.49	236.69
759.82	236.69
760.15	236.62
760.47	236.53
760.80	236.39
761.13	236.33
761.45	236.25
761.78	236.18
762.11	236.12
762.43	235.95
762.76	235.87
763.08	235.80
763.41	235.74
763.74	235.68
764.06	235.61
764.39	235.54
764.71	235.46
765.04	235.37
765.37	235.29
765.69	235.23
766.02	235.15
766.34	235.06
766.67	234.93
767.00	234.89
767.32	234.92
767.65	234.97
767.97	234.89
768.30	234.83
768.62	234.78
768.95	234.69
769.27	234.62
769.60	234.59
769.92	234.50
770.25	234.42
770.57	234.33
770.90	234.27
771.22	234.20
771.55	234.15
771.87	234.12
772.20	234.06
772.52	234.15
772.85	234.31
773.17	234.26
773.50	234.19
773.82	234.12
774.15	233.98
774.47	233.81
774.80	233.75
775.12	233.70
775.45	233.64
775.77	233.60
776.09	233.58
776.42	233.53
776.74	233.55
777.07	233.50
777.39	233.48
777.72	233.41
778.04	233.40
778.36	233.35
778.69	233.30
779.01	233.28
779.33	233.09
779.66	232.85
779.98	232.80
780.31	232.78
780.63	232.81
780.95	232.81
781.28	232.76
781.60	232.71
781.92	232.68
782.25	232.64
782.57	232.60
782.89	232.55
783.22	232.51
783.54	232.42
783.86	232.39
784.19	232.35
784.51	232.36
784.83	232.31
785.16	232.26
785.48	232.23
785.80	232.20
786.12	232.18
786.45	232.15
786.77	232.14
787.09	232.10
787.42	232.01
787.74	231.98
788.06	231.97
788.38	231.94
788.71	231.89
789.03	231.87
789.35	231.87
789.67	231.83
789.99	231.81
790.32	231.78
790.64	231.78
790.96	231.91
791.28	231.84
791.61	231.81
791.93	231.80
792.25	231.77
792.57	231.86
792.89	231.82
793.21	231.80
793.54	231.76
793.86	231.72
794.18	231.71
794.50	231.66
794.82	231.64
795.14	231.64
795.47	231.66
795.79	231.65
796.11	231.59
796.43	231.56
796.75	231.54
797.07	231.54
797.39	231.50
797.71	231.33
798.04	231.32
798.36	231.32
798.68	231.30
799.00	231.30
799.32	231.20
799.64	231.20
799.96	231.18
800.28	231.19
800.60	231.18
800.92	231.17
801.24	231.15
801.56	231.15
801.89	231.11
802.21	231.09
802.53	231.03
802.85	231.05
803.17	231.11
803.49	231.06
803.81	231.02
804.13	230.99
804.45	230.97
804.77	230.96
805.09	230.95
805.41	230.91
805.73	230.85
806.05	230.80
806.37	230.76
806.69	230.72
807.01	230.70
807.33	230.69
807.65	230.61
807.97	230.68
808.28	230.65
808.60	230.63
808.92	230.59
809.24	230.69
809.56	230.65
809.88	230.57
810.20	230.57
810.52	230.60
810.84	230.55
811.16	230.51
811.48	230.48
811.80	230.53
812.12	230.52
812.43	230.55
812.75	230.54
813.07	230.53
813.39	230.53
813.71	230.49
814.03	230.45
814.35	230.44
814.67	230.35
814.98	230.32
815.30	230.31
815.62	230.28
815.94	230.15
816.26	230.15
816.58	230.11
816.89	230.10
817.21	230.03
817.53	230.04
817.85	230.04
818.17	230.03
818.48	229.94
818.80	229.96
819.12	229.92
819.44	229.89
819.76	229.84
820.07	229.83
820.39	229.82
820.71	229.84
821.03	229.83
821.34	229.81
821.66	229.82
821.98	229.83
822.30	229.82
822.61	229.92
822.93	229.88
823.25	229.88
823.57	229.86
823.88	229.89
824.20	229.88
824.52	229.91
824.83	229.89
825.15	229.86
825.47	229.84
825.79	229.84
826.10	229.82
826.42	229.81
826.74	229.81
827.05	229.80
827.37	229.80
827.69	229.78
828.00	229.78
828.32	229.76
828.64	229.73
828.95	229.81
829.27	229.75
829.58	229.74
829.90	229.76
830.22	229.76
830.53	229.71
830.85	229.68
831.17	229.62
831.48	229.61
831.80	229.62
832.11	229.59
832.43	229.56
832.75	229.55
833.06	229.65
833.38	229.59
833.69	229.58
834.01	229.57
834.32	229.56
834.64	229.54
834.96	229.54
835.27	229.53
835.59	229.47
835.90	229.44
836.22	229.42
836.53	229.39
836.85	229.36
837.16	229.54
837.48	229.54
837.79	229.61
838.11	229.59
838.42	229.58
838.74	229.61
839.05	229.59
839.37	229.58
839.68	229.47
840.00	229.47
840.31	229.48
840.63	229.46
840.94	229.45
841.26	229.43
841.57	229.42
841.88	229.42
842.20	229.40
842.51	229.37
842.83	229.37
843.14	229.51
843.46	229.51
843.77	229.41
844.08	229.39
844.40	229.32
844.71	229.31
845.03	229.30
845.34	229.26
845.65	229.26
845.97	229.27
846.28	229.28
846.60	229.30
846.91	229.28
847.22	229.27
847.54	229.31
847.85	229.31
848.16	229.29
848.48	229.26
848.79	229.32
849.10	229.32
849.42	229.34
849.73	229.17
850.04	229.17
850.36	229.11
850.67	229.14
850.98	229.15
851.30	229.16
851.61	229.15
851.92	229.14
852.23	229.20
852.55	229.20
852.86	229.19
853.17	229.19
853.49	229.22
853.80	229.25
854.11	229.24
854.42	229.27
854.74	229.26
855.05	229.28
855.36	229.19
855.67	229.19
855.99	229.18
856.30	229.39
856.61	229.39
856.92	229.39
857.23	229.39
857.55	229.37
857.86	229.37
858.17	229.39
858.48	229.36
858.79	229.32
859.11	229.34
859.42	229.33
859.73	229.31
860.04	229.30
860.35	229.26
860.66	229.21
860.98	229.19
861.29	229.21
861.60	229.18
861.91	229.24
862.22	229.21
862.53	229.19
862.84	228.98
863.16	229.02
863.47	228.97
863.78	228.95
864.09	228.96
864.40	228.97
864.71	228.96
865.02	229.00
865.33	228.97
865.64	228.93
865.95	228.94
866.27	229.04
866.58	229.02
866.89	229.05
867.20	229.04
867.51	229.02
867.82	229.01
868.13	229.06
868.44	229.01
868.75	229.04
869.06	229.05
869.37	229.06
869.68	229.02
869.99	229.06
870.30	229.07
870.61	229.08
870.92	229.04
871.23	229.03
871.54	229.04
871.85	229.08
872.16	229.11
872.47	229.09
872.78	229.00
873.09	229.02
873.40	228.99
873.71	229.01
874.02	229.02
874.33	229.01
874.64	228.97
874.95	229.01
875.26	228.96
875.56	228.96
875.87	228.95
876.18	228.94
876.49	229.11
876.80	229.09
877.11	229.07
877.42	229.08
877.73	229.09
878.04	229.06
878.35	229.06
878.66	229.06
878.96	229.05
879.27	229.04
879.58	229.02
879.89	229.03
880.20	229.07
880.51	229.06
880.82	229.06
881.12	229.06
881.43	229.01
881.74	228.99
882.05	228.99
882.36	229.01
882.67	229.03
882.97	228.84
883.28	228.84
883.59	228.83
883.90	228.86
884.21	228.87
884.51	228.86
884.82	228.82
885.13	228.81
885.44	228.80
885.74	228.81
886.05	228.81
886.36	228.81
886.67	228.74
886.98	228.83
887.28	228.86
887.59	228.85
887.90	228.87
888.20	228.87
888.51	228.90
888.82	228.87
889.13	228.88
889.43	229.02
889.74	229.01
890.05	229.02
890.35	228.98
890.66	228.96
890.97	228.94
891.28	228.94
891.58	228.95
891.89	228.95
892.20	228.93
892.50	228.90
892.81	228.88
893.12	228.88
893.42	228.79
893.73	228.80
894.04	228.80
894.34	228.81
894.65	228.81
894.95	228.80
895.26	228.81
895.57	228.87
895.87	228.70
896.18	228.73
896.48	228.74
896.79	228.74
897.10	228.76
897.40	228.77
897.71	228.80
898.01	228.77
898.32	228.79
898.63	228.79
898.93	228.81
899.24	228.83
899.54	228.82
899.85	228.82
900.15	228.80
900.46	228.79
900.76	228.81
901.07	228.80
901.38	228.79
901.68	228.82
901.99	228.73
902.29	228.74
902.60	228.72
902.90	228.70
903.21	228.70
903.51	228.69
903.82	228.72
904.12	228.72
904.43	228.72
904.73	228.72
905.03	228.72
905.34	228.89
905.64	228.88
905.95	228.88
906.25	228.88
906.56	228.88
906.86	228.88
907.17	228.86
907.47	228.87
907.77	228.84
908.08	228.80
908.38	228.81
908.69	228.83
908.99	228.86
909.30	228.86
909.60	228.85
909.90	228.85
910.21	228.80
910.51	228.78
910.81	228.79
911.12	228.79
911.42	228.79
911.73	228.59
912.03	228.61
912.33	228.64
912.64	228.63
912.94	228.60
913.24	228.57
913.55	228.56
913.85	228.55
914.15	228.58
914.46	228.60
914.76	228.58
915.06	228.57
915.37	228.53
915.67	228.52
915.97	228.54
916.27	228.51
916.58	228.53
916.88	228.52
917.18	228.50
917.49	228.63
917.79	228.62
918.09	228.65
918.39	228.69
918.70	228.68
919.00	228.69
919.30	228.78
919.60	228.78
919.91	228.78
920.21	228.79
920.51	228.75
920.81	228.74
921.12	228.77
921.42	228.77
921.72	228.79
922.02	228.81
922.32	228.83
922.63	228.83
922.93	228.92
923.23	228.93
923.53	228.92
923.83	228.79
924.13	228.81
924.44	228.81
924.74	228.83
925.04	228.87
925.34	228.87
925.64	228.79
925.94	228.81
926.24	228.90
926.55	228.87
926.85	228.91
927.15	228.91
927.45	228.90
927.75	228.91
928.05	228.91
928.35	228.89
928.65	228.92
928.95	228.94
929.26	228.85
929.56	228.89
929.86	228.92
930.16	228.90
930.46	228.88
930.76	228.89
931.06	228.80
931.36	228.74
931.66	228.77
931.96	228.80
932.26	228.80
932.56	228.72
932.86	228.73
933.16	228.72
933.46	228.71
933.76	228.67
934.06	228.70
934.36	228.75
934.66	228.74
934.96	228.70
935.26	228.70
935.56	228.73
935.86	228.67
936.16	228.65
936.46	228.63
936.76	228.64
937.06	228.61
937.36	228.64
937.66	228.65
937.96	228.63
938.26	228.59
938.56	228.58
938.86	228.60
939.16	228.63
939.46	228.65
939.76	228.66
940.06	228.67
940.35	228.64
940.65	228.55
940.95	228.58
941.25	228.54
941.55	228.52
941.85	228.52
942.15	228.57
942.45	228.60
942.75	228.61
943.04	228.61
943.34	228.65
943.64	228.63
943.94	228.61
944.24	228.61
944.54	228.63
944.84	228.61
945.13	228.58
945.43	228.55
945.73	228.54
946.03	228.52
946.33	228.49
946.62	228.48
946.92	228.49
947.22	228.49
947.52	228.50
947.82	228.52
948.11	228.50
948.41	228.45
948.71	228.41
949.01	228.41
949.31	228.39
949.60	228.37
949.90	228.39
950.20	228.39
950.50	228.39
950.79	228.36
951.09	228.40
951.39	228.39
951.69	228.38
951.98	228.42
952.28	228.44
952.58	228.43
952.87	228.44
953.17	228.44
953.47	228.41
953.76	228.41
954.06	228.37
954.36	228.36
954.66	228.36
954.95	228.40
955.25	228.42
955.55	228.45
955.84	228.42
956.14	228.44
956.44	228.45
956.73	228.42
957.03	228.44
957.32	228.43
957.62	228.44
957.92	228.48
958.21	228.45
958.51	228.64
958.81	228.67
959.10	228.69
959.40	228.75
959.69	228.76
959.99	228.80
960.29	228.82
960.58	228.82
960.88	228.89
961.17	228.87
961.47	228.89
961.76	228.86
962.06	228.88
962.36	228.86
962.65	228.87
962.95	228.89
963.24	228.87
963.54	228.88
963.83	228.88
964.13	228.88
964.42	228.87
964.72	228.73
965.01	228.72
965.31	228.71
965.60	228.66
965.90	228.77
966.19	228.73
966.49	228.74
966.78	228.73
967.08	228.72
967.37	228.72
967.67	228.68
967.96	228.73
968.26	228.73
968.55	228.75
968.85	228.74
969.14	228.74
969.43	228.75
969.73	228.74
970.02	228.73
970.32	228.71
970.61	228.69
970.91	228.64
971.20	228.62
971.49	228.61
971.79	228.63
972.08	228.51
972.38	228.52
972.67	228.51
972.96	228.53
973.26	228.50
973.55	228.54
973.85	228.55
974.14	228.53
974.43	228.53
974.73	228.49
975.02	228.48
975.31	228.48
975.61	228.47
975.90	228.45
976.19	228.44
976.49	228.46
976.78	228.47
977.07	228.46
977.37	228.48
977.66	228.50
977.95	228.48
978.24	228.49
978.54	228.53
978.83	228.51
979.12	228.50
979.42	228.51
979.71	228.46
980.00	228.46
980.29	228.46
980.59	228.42
980.88	228.47
981.17	228.46
981.46	228.45
981.76	228.46
982.05	228.52
982.34	228.53
982.63	228.53
982.93	228.53
983.22	228.59
983.51	228.58
983.80	228.58
984.09	228.60
984.39	228.59
984.68	228.56
984.97	228.58
985.26	228.56
985.55	228.57
985.85	228.54
986.14	228.56
986.43	228.58
986.72	228.59
987.01	228.54
987.30	228.53
987.59	228.52
987.89	228.53
988.18	228.47
988.47	228.46
988.76	228.43
989.05	228.41
989.34	228.37
989.63	228.41
989.92	228.39
990.22	228.36
990.51	228.35
990.80	228.33
991.09	228.34
991.38	228.37
991.67	228.34
991.96	228.34
992.25	228.35
992.54	228.32
992.83	228.32
993.12	228.32
993.41	228.34
993.70	228.42
993.99	228.45
994.28	228.47
994.58	228.50
994.87	228.49
995.16	228.50
995.45	228.49
995.74	228.44
996.03	228.47
996.32	228.50
996.61	228.54
996.90	228.54
997.19	228.53
997.48	228.52
997.77	228.50
998.06	228.50
998.34	228.49
998.63	228.49
998.92	228.49
999.21	228.53
999.50	228.53
999.79	228.47
1000.08	228.45
1000.37	228.45
1000.66	228.43
1000.95	228.47
1001.24	228.47
1001.53	228.50
1001.82	228.49
1002.11	228.45
1002.40	228.46
1002.68	228.51
1002.97	228.62
1003.26	228.61
1003.55	228.59
1003.84	228.62
1004.13	228.67
1004.42	228.66
1004.71	228.66
1004.99	228.65
1005.28	228.68
1005.57	228.67
1005.86	228.65
1006.15	228.64
1006.44	228.62
1006.72	228.64
1007.01	228.62
1007.30	228.61
1007.59	228.59
1007.88	228.60
1008.17	228.59
1008.45	228.56
1008.74	228.48
1009.03	228.41
1009.32	228.40
1009.60	228.40
1009.89	228.37
1010.18	228.32
1010.47	228.30
1010.76	228.30
1011.04	228.29
1011.33	228.28
1011.62	228.30
1011.91	228.31
1012.19	228.31
1012.48	228.31
1012.77	228.31
1013.05	228.36
1013.34	228.36
1013.63	228.35
1013.92	228.37
1014.20	228.36
1014.49	228.37
1014.78	228.39
1015.06	228.32
1015.35	228.33
1015.64	228.36
1015.92	228.41
1016.21	228.41
1016.50	228.42
1016.78	228.45
1017.07	228.46
1017.36	228.43
1017.64	228.39
1017.93	228.41
1018.22	228.40
1018.50	228.40
1018.79	228.39
1019.08	228.33
1019.36	228.33
1019.65	228.32
1019.93	228.35
1020.22	228.38
1020.51	228.47
1020.79	228.44
1021.08	228.09
1021.36	228.15
1021.65	228.22
1021.94	228.26
1022.22	228.38
1022.51	228.03
1022.79	229.11
1023.08	228.46
1023.36	230.46
1023.65	227.87
>>>>>End Processed Spectral Data<<<<<
