SpectraSuite Data File
++++++++++++++++++++++++++++++++++++
Date: Tue Oct 06 17:39:35 EDT 2015
User: lab3
Dark Spectrum Present: No
Reference Spectrum Present: No
Number of Sampled Component Spectra: 1
Spectrometers: USB2E7196
Integration Time (usec): 66000 (USB2E7196)
Spectra Averaged: 1000 (USB2E7196)
Boxcar Smoothing: 10 (USB2E7196)
Correct for Electrical Dark: No (USB2E7196)
Strobe/Lamp Enabled: No (USB2E7196)
Correct for Detector Non-linearity: No (USB2E7196)
Correct for Stray Light: No (USB2E7196)
Number of Pixels in Processed Spectrum: 2048
>>>>>Begin Processed Spectral Data<<<<<
339.09	0.00
339.48	215.28
339.86	216.70
340.24	217.98
340.63	219.35
341.01	223.66
341.39	222.18
341.78	223.53
342.16	224.92
342.54	225.22
342.93	213.69
343.31	224.49
343.69	225.02
344.07	225.49
344.46	225.93
344.84	226.35
345.22	226.54
345.60	226.81
345.99	227.03
346.37	227.17
346.75	227.30
347.13	227.40
347.52	227.48
347.90	227.60
348.28	227.65
348.66	227.73
349.05	227.73
349.43	227.80
349.81	227.88
350.19	227.94
350.57	228.02
350.96	228.11
351.34	228.22
351.72	228.33
352.10	228.43
352.48	228.51
352.87	228.55
353.25	228.63
353.63	228.68
354.01	228.74
354.39	228.81
354.77	228.88
355.15	229.00
355.54	229.04
355.92	229.05
356.30	229.13
356.68	229.31
357.06	229.39
357.44	229.42
357.82	229.48
358.20	229.68
358.58	229.73
358.97	229.80
359.35	229.88
359.73	229.98
360.11	230.03
360.49	230.09
360.87	230.14
361.25	230.20
361.63	230.31
362.01	230.36
362.39	230.38
362.77	230.44
363.15	230.45
363.53	230.49
363.91	230.54
364.29	230.56
364.67	230.41
365.05	230.43
365.43	230.47
365.81	230.50
366.19	230.44
366.57	230.53
366.95	230.52
367.33	230.48
367.71	230.47
368.09	230.50
368.47	230.50
368.85	230.49
369.23	230.50
369.61	230.42
369.99	230.46
370.37	230.46
370.75	230.57
371.13	230.54
371.51	230.49
371.89	230.47
372.27	230.45
372.65	230.43
373.03	230.39
373.41	230.34
373.78	230.29
374.16	230.18
374.54	230.08
374.92	230.03
375.30	230.00
375.68	229.92
376.06	229.88
376.44	229.81
376.82	229.78
377.19	229.73
377.57	229.68
377.95	229.58
378.33	229.53
378.71	229.33
379.09	229.29
379.47	229.28
379.84	229.22
380.22	229.15
380.60	229.08
380.98	229.03
381.36	228.99
381.73	228.93
382.11	228.91
382.49	228.87
382.87	228.81
383.25	228.77
383.62	228.94
384.00	228.86
384.38	228.84
384.76	228.84
385.13	228.86
385.51	228.82
385.89	228.76
386.27	228.73
386.64	228.73
387.02	228.68
387.40	228.63
387.78	228.62
388.15	228.60
388.53	228.56
388.91	228.54
389.29	228.51
389.66	228.51
390.04	228.47
390.42	228.48
390.79	228.49
391.17	228.48
391.55	228.28
391.92	228.27
392.30	228.28
392.68	228.24
393.05	228.22
393.43	228.24
393.81	228.27
394.18	228.25
394.56	228.26
394.94	228.31
395.31	228.31
395.69	228.38
396.06	228.42
396.44	228.47
396.82	228.48
397.19	228.62
397.57	228.63
397.95	228.72
398.32	228.72
398.70	228.78
399.07	228.88
399.45	228.94
399.82	229.01
400.20	229.07
400.58	229.16
400.95	229.17
401.33	229.28
401.70	229.51
402.08	229.64
402.45	229.77
402.83	229.94
403.20	230.11
403.58	230.23
403.95	230.43
404.33	230.65
404.71	230.86
405.08	231.16
405.46	231.41
405.83	231.67
406.21	231.95
406.58	232.28
406.96	232.59
407.33	232.95
407.70	233.37
408.08	233.92
408.45	234.41
408.83	234.95
409.20	235.43
409.58	235.88
409.95	236.50
410.33	237.17
410.70	237.78
411.08	238.53
411.45	239.32
411.82	240.13
412.20	241.05
412.57	242.15
412.95	243.01
413.32	244.14
413.69	245.30
414.07	246.53
414.44	247.86
414.82	249.23
415.19	250.84
415.56	252.48
415.94	254.17
416.31	256.09
416.68	258.01
417.06	260.22
417.43	262.30
417.81	264.68
418.18	267.12
418.55	269.80
418.93	272.56
419.30	275.46
419.67	278.54
420.04	281.69
420.42	285.01
420.79	288.83
421.16	292.67
421.54	296.57
421.91	300.65
422.28	304.90
422.66	309.46
423.03	313.80
423.40	318.37
423.77	323.24
424.15	328.23
424.52	333.42
424.89	339.03
425.26	344.60
425.64	349.76
426.01	355.57
426.38	361.49
426.75	367.59
427.13	373.83
427.50	380.39
427.87	387.18
428.24	394.00
428.61	400.55
428.99	407.63
429.36	415.37
429.73	422.77
430.10	430.16
430.47	437.73
430.85	445.55
431.22	453.86
431.59	462.43
431.96	470.78
432.33	480.04
432.70	488.87
433.08	499.33
433.45	509.19
433.82	518.90
434.19	529.82
434.56	540.54
434.93	550.96
435.30	561.26
435.68	572.96
436.05	584.40
436.42	595.86
436.79	606.33
437.16	617.73
437.53	629.92
437.90	642.09
438.27	654.03
438.64	666.92
439.01	678.66
439.38	689.40
439.75	699.79
440.13	711.61
440.50	722.83
440.87	731.81
441.24	741.68
441.61	752.53
441.98	760.51
442.35	769.99
442.72	779.64
443.09	788.82
443.46	794.77
443.83	799.31
444.20	803.06
444.57	808.49
444.94	811.68
445.31	814.98
445.68	817.80
446.05	819.92
446.42	819.56
446.79	818.94
447.16	818.44
447.53	818.00
447.90	814.46
448.27	811.10
448.64	805.78
449.01	802.11
449.37	794.54
449.74	787.68
450.11	778.81
450.48	769.06
450.85	759.28
451.22	750.90
451.59	742.62
451.96	735.12
452.33	724.29
452.70	714.67
453.07	703.01
453.43	691.43
453.80	680.09
454.17	669.25
454.54	659.24
454.91	647.95
455.28	637.27
455.65	627.22
456.02	616.56
456.38	608.00
456.75	597.03
457.12	588.19
457.49	579.27
457.86	570.85
458.23	563.42
458.59	555.24
458.96	546.85
459.33	539.48
459.70	531.98
460.07	526.26
460.43	519.50
460.80	513.19
461.17	507.68
461.54	501.74
461.91	496.17
462.27	490.51
462.64	485.87
463.01	480.61
463.38	475.28
463.74	470.48
464.11	466.21
464.48	462.34
464.85	458.19
465.21	454.99
465.58	451.44
465.95	447.44
466.32	444.25
466.68	441.16
467.05	438.00
467.42	434.93
467.78	431.65
468.15	428.63
468.52	426.43
468.88	423.50
469.25	420.84
469.62	418.73
469.98	416.45
470.35	414.39
470.72	412.52
471.08	410.64
471.45	409.05
471.82	407.31
472.18	405.49
472.55	404.29
472.92	402.79
473.28	401.63
473.65	400.40
474.02	399.22
474.38	398.19
474.75	397.60
475.11	396.79
475.48	396.42
475.85	396.02
476.21	395.76
476.58	395.60
476.94	395.76
477.31	395.81
477.67	395.87
478.04	396.17
478.41	396.61
478.77	397.21
479.14	397.60
479.50	398.37
479.87	399.34
480.23	400.30
480.60	401.23
480.96	402.16
481.33	403.56
481.69	404.94
482.06	406.32
482.42	407.57
482.79	409.15
483.15	410.99
483.52	413.05
483.88	415.02
484.25	417.11
484.61	419.31
484.98	421.65
485.34	424.32
485.71	427.12
486.07	430.09
486.44	433.02
486.80	436.31
487.17	439.71
487.53	443.37
487.90	447.21
488.26	451.42
488.62	455.84
488.99	460.25
489.35	464.86
489.72	469.83
490.08	475.08
490.44	480.42
490.81	485.99
491.17	491.72
491.54	497.88
491.90	504.15
492.26	510.85
492.63	517.89
492.99	525.24
493.36	532.73
493.72	540.61
494.08	548.70
494.45	557.18
494.81	566.04
495.17	575.16
495.54	584.77
495.90	594.78
496.26	604.99
496.63	615.47
496.99	626.37
497.35	637.78
497.72	649.43
498.08	661.42
498.44	673.72
498.80	686.71
499.17	699.98
499.53	713.75
499.89	727.92
500.26	742.27
500.62	756.97
500.98	772.49
501.34	788.04
501.71	804.41
502.07	821.03
502.43	838.11
502.79	855.42
503.16	873.21
503.52	891.19
503.88	909.60
504.24	928.48
504.60	947.57
504.97	967.27
505.33	987.41
505.69	1008.60
506.05	1030.02
506.41	1051.29
506.78	1072.70
507.14	1094.70
507.50	1117.16
507.86	1140.04
508.22	1163.09
508.59	1186.05
508.95	1210.04
509.31	1234.48
509.67	1259.54
510.03	1284.49
510.39	1309.40
510.75	1334.37
511.12	1359.77
511.48	1385.29
511.84	1410.77
512.20	1436.63
512.56	1463.46
512.92	1490.19
513.28	1516.29
513.64	1542.77
514.00	1569.62
514.37	1596.75
514.73	1623.88
515.09	1650.30
515.45	1677.05
515.81	1703.98
516.17	1730.60
516.53	1756.60
516.89	1782.43
517.25	1808.57
517.61	1834.53
517.97	1861.11
518.33	1887.05
518.69	1912.83
519.05	1939.11
519.41	1965.52
519.77	1991.83
520.13	2016.76
520.49	2041.70
520.85	2066.98
521.21	2091.69
521.57	2116.71
521.93	2140.77
522.29	2165.34
522.65	2189.83
523.01	2213.97
523.37	2237.40
523.73	2261.57
524.09	2285.48
524.45	2308.98
524.81	2331.86
525.17	2354.51
525.53	2376.40
525.89	2398.78
526.25	2420.74
526.61	2441.05
526.97	2461.45
527.33	2481.72
527.68	2501.68
528.04	2521.20
528.40	2539.52
528.76	2558.01
529.12	2576.09
529.48	2594.66
529.84	2610.57
530.20	2626.87
530.56	2642.30
530.91	2658.02
531.27	2673.13
531.63	2687.25
531.99	2701.22
532.35	2714.80
532.71	2727.90
533.07	2741.37
533.42	2752.88
533.78	2764.74
534.14	2777.50
534.50	2789.12
534.86	2801.21
535.21	2811.34
535.57	2821.30
535.93	2831.04
536.29	2838.95
536.65	2846.71
537.00	2853.03
537.36	2860.70
537.72	2867.39
538.08	2873.65
538.44	2878.67
538.79	2883.50
539.15	2886.98
539.51	2889.65
539.87	2891.21
540.22	2891.38
540.58	2891.71
540.94	2892.97
541.29	2892.93
541.65	2891.63
542.01	2889.84
542.37	2886.51
542.72	2884.57
543.08	2881.09
543.44	2877.85
543.79	2874.22
544.15	2869.88
544.51	2865.73
544.87	2860.53
545.22	2854.37
545.58	2848.02
545.94	2841.94
546.29	2834.32
546.65	2826.92
547.01	2819.69
547.36	2812.91
547.72	2806.25
548.07	2797.89
548.43	2788.36
548.79	2778.65
549.14	2769.22
549.50	2759.91
549.86	2749.72
550.21	2738.06
550.57	2727.50
550.92	2715.11
551.28	2703.21
551.64	2691.54
551.99	2679.54
552.35	2667.15
552.70	2654.62
553.06	2642.58
553.41	2630.03
553.77	2617.28
554.13	2604.62
554.48	2590.84
554.84	2576.27
555.19	2562.14
555.55	2547.91
555.90	2534.22
556.26	2520.76
556.61	2506.15
556.97	2490.62
557.32	2475.55
557.68	2460.78
558.03	2445.62
558.39	2431.52
558.74	2418.02
559.10	2402.58
559.45	2387.49
559.81	2373.07
560.16	2358.34
560.52	2343.34
560.87	2328.49
561.23	2313.35
561.58	2298.73
561.94	2283.62
562.29	2268.02
562.64	2252.59
563.00	2237.32
563.35	2222.14
563.71	2206.62
564.06	2191.26
564.42	2176.46
564.77	2161.69
565.12	2146.61
565.48	2131.31
565.83	2116.23
566.19	2101.08
566.54	2086.30
566.89	2070.91
567.25	2055.41
567.60	2040.77
567.96	2025.35
568.31	2008.82
568.66	1993.18
569.02	1978.05
569.37	1963.53
569.72	1949.60
570.08	1935.18
570.43	1920.21
570.78	1905.06
571.14	1889.72
571.49	1874.47
571.84	1859.47
572.20	1843.31
572.55	1827.95
572.90	1812.70
573.26	1797.48
573.61	1781.62
573.96	1766.24
574.31	1750.69
574.67	1735.01
575.02	1719.02
575.37	1703.09
575.72	1687.90
576.08	1672.46
576.43	1656.41
576.78	1640.52
577.13	1624.84
577.49	1609.38
577.84	1594.35
578.19	1578.88
578.54	1563.51
578.90	1548.01
579.25	1532.43
579.60	1517.99
579.95	1503.27
580.30	1488.45
580.66	1473.35
581.01	1458.38
581.36	1443.57
581.71	1429.55
582.06	1415.49
582.42	1401.26
582.77	1387.57
583.12	1374.07
583.47	1360.46
583.82	1347.02
584.17	1333.17
584.53	1319.39
584.88	1305.90
585.23	1292.28
585.58	1278.97
585.93	1265.63
586.28	1253.32
586.63	1240.77
586.98	1227.89
587.34	1215.34
587.69	1202.64
588.04	1190.27
588.39	1178.19
588.74	1165.68
589.09	1153.32
589.44	1140.72
589.79	1128.67
590.14	1116.68
590.49	1104.76
590.84	1093.09
591.19	1081.73
591.54	1070.45
591.89	1058.76
592.25	1047.42
592.60	1035.97
592.95	1024.74
593.30	1013.82
593.65	1002.60
594.00	991.67
594.35	981.59
594.70	970.90
595.05	960.85
595.40	950.59
595.75	940.16
596.10	930.36
596.45	920.54
596.80	911.06
597.15	901.59
597.50	892.13
597.85	882.87
598.19	873.63
598.54	864.39
598.89	855.69
599.24	847.38
599.59	838.90
599.94	831.03
600.29	823.16
600.64	815.12
600.99	806.98
601.34	799.12
601.69	790.74
602.04	783.22
602.39	775.57
602.74	768.13
603.08	760.86
603.43	753.54
603.78	746.18
604.13	738.94
604.48	731.74
604.83	724.75
605.18	717.85
605.53	711.08
605.87	704.24
606.22	697.54
606.57	690.78
606.92	683.93
607.27	677.11
607.62	670.50
607.96	664.16
608.31	658.25
608.66	652.29
609.01	646.60
609.36	640.86
609.70	635.07
610.05	629.30
610.40	623.71
610.75	618.10
611.10	612.71
611.44	607.31
611.79	602.06
612.14	596.70
612.49	591.43
612.83	586.45
613.18	581.53
613.53	576.57
613.88	571.79
614.22	567.35
614.57	562.82
614.92	558.37
615.27	554.05
615.61	549.63
615.96	545.21
616.31	540.82
616.65	536.59
617.00	532.48
617.35	528.42
617.70	524.37
618.04	520.42
618.39	516.61
618.74	513.02
619.08	509.37
619.43	505.86
619.78	502.29
620.12	498.71
620.47	495.34
620.82	492.07
621.16	488.79
621.51	485.55
621.85	482.36
622.20	479.24
622.55	476.05
622.89	472.92
623.24	469.98
623.59	467.09
623.93	464.25
624.28	461.59
624.62	459.10
624.97	456.64
625.32	454.09
625.66	451.48
626.01	448.84
626.35	446.39
626.70	443.83
627.04	441.50
627.39	439.13
627.73	436.82
628.08	434.57
628.43	432.33
628.77	430.03
629.12	427.84
629.46	425.76
629.81	423.82
630.15	421.80
630.50	419.78
630.84	417.81
631.19	415.89
631.53	414.02
631.88	412.00
632.22	410.08
632.57	408.42
632.91	406.74
633.26	405.14
633.60	403.53
633.95	402.04
634.29	400.42
634.64	398.86
634.98	397.16
635.32	395.64
635.67	394.26
636.01	392.88
636.36	391.54
636.70	390.29
637.05	388.88
637.39	387.62
637.73	386.35
638.08	385.17
638.42	384.02
638.77	382.74
639.11	381.42
639.45	380.14
639.80	378.81
640.14	377.57
640.49	376.32
640.83	375.06
641.17	373.84
641.52	372.65
641.86	371.51
642.20	370.52
642.55	369.33
642.89	368.19
643.23	367.11
643.58	366.15
643.92	365.02
644.26	363.98
644.61	362.98
644.95	361.92
645.29	360.81
645.64	359.68
645.98	358.68
646.32	357.79
646.66	356.84
647.01	355.91
647.35	355.07
647.69	354.19
648.04	353.39
648.38	352.53
648.72	351.71
649.06	350.88
649.41	350.00
649.75	349.19
650.09	348.40
650.43	347.58
650.78	346.73
651.12	345.94
651.46	345.16
651.80	344.39
652.14	343.69
652.49	343.04
652.83	342.31
653.17	341.54
653.51	340.80
653.85	340.18
654.20	339.52
654.54	338.74
654.88	338.02
655.22	337.36
655.56	336.66
655.90	335.98
656.25	335.31
656.59	334.68
656.93	334.07
657.27	333.51
657.61	332.86
657.95	332.27
658.29	331.66
658.64	331.07
658.98	330.42
659.32	329.81
659.66	329.21
660.00	328.66
660.34	328.11
660.68	327.53
661.02	326.86
661.36	326.25
661.70	325.70
662.05	325.15
662.39	324.60
662.73	324.12
663.07	323.69
663.41	323.22
663.75	322.69
664.09	322.18
664.43	321.55
664.77	321.03
665.11	320.45
665.45	319.92
665.79	319.42
666.13	318.89
666.47	318.34
666.81	317.78
667.15	317.21
667.49	316.73
667.83	316.30
668.17	315.86
668.51	315.42
668.85	315.01
669.19	314.63
669.53	314.10
669.87	313.56
670.21	313.01
670.55	312.49
670.89	312.08
671.23	311.63
671.57	311.24
671.91	310.89
672.25	310.56
672.58	310.23
672.92	309.78
673.26	309.44
673.60	309.08
673.94	308.70
674.28	308.38
674.62	308.01
674.96	307.57
675.30	307.18
675.64	306.74
675.97	306.28
676.31	305.80
676.65	305.38
676.99	305.05
677.33	304.62
677.67	304.23
678.01	303.76
678.34	303.34
678.68	302.94
679.02	302.48
679.36	302.04
679.70	301.59
680.04	301.21
680.37	300.81
680.71	300.40
681.05	300.04
681.39	299.60
681.73	299.14
682.06	298.72
682.40	298.32
682.74	297.97
683.08	297.67
683.42	297.30
683.75	296.96
684.09	296.49
684.43	296.10
684.77	295.69
685.10	295.31
685.44	294.92
685.78	294.53
686.12	294.15
686.45	293.72
686.79	293.29
687.13	292.87
687.46	292.42
687.80	292.03
688.14	291.56
688.48	291.14
688.81	290.72
689.15	290.38
689.49	289.95
689.82	289.51
690.16	288.98
690.50	288.53
690.83	288.10
691.17	287.65
691.51	287.24
691.84	286.85
692.18	286.42
692.52	285.96
692.85	285.51
693.19	285.14
693.52	284.71
693.86	284.30
694.20	283.88
694.53	283.47
694.87	283.01
695.21	282.59
695.54	282.17
695.88	281.72
696.21	281.24
696.55	280.80
696.88	280.36
697.22	279.95
697.56	279.57
697.89	279.11
698.23	278.71
698.56	278.26
698.90	277.87
699.23	277.42
699.57	277.04
699.90	276.63
700.24	276.18
700.58	275.79
700.91	275.44
701.25	275.20
701.58	274.88
701.92	274.54
702.25	274.17
702.59	273.79
702.92	273.42
703.26	273.02
703.59	272.64
703.93	272.40
704.26	272.02
704.60	271.62
704.93	271.26
705.26	270.87
705.60	270.53
705.93	270.09
706.27	269.80
706.60	269.45
706.94	269.13
707.27	268.73
707.61	268.37
707.94	267.96
708.27	267.41
708.61	266.98
708.94	266.57
709.28	266.19
709.61	265.82
709.94	265.48
710.28	265.16
710.61	264.85
710.95	264.34
711.28	264.13
711.61	263.77
711.95	263.47
712.28	263.12
712.61	262.78
712.95	262.55
713.28	262.28
713.61	261.93
713.95	261.55
714.28	261.25
714.61	260.89
714.95	260.58
715.28	260.28
715.61	259.97
715.95	259.68
716.28	259.38
716.61	259.11
716.95	258.79
717.28	258.49
717.61	258.17
717.94	257.91
718.28	257.50
718.61	257.22
718.94	256.91
719.27	256.64
719.61	256.38
719.94	256.06
720.27	255.71
720.60	255.44
720.94	255.17
721.27	254.92
721.60	254.70
721.93	254.42
722.27	254.21
722.60	253.97
722.93	253.70
723.26	253.46
723.59	253.17
723.93	252.94
724.26	252.70
724.59	252.46
724.92	252.23
725.25	252.05
725.59	251.82
725.92	251.62
726.25	251.38
726.58	251.14
726.91	250.90
727.24	250.69
727.57	250.46
727.91	250.22
728.24	250.01
728.57	249.79
728.90	249.61
729.23	249.34
729.56	249.20
729.89	248.99
730.22	248.78
730.55	248.58
730.89	248.37
731.22	248.18
731.55	247.98
731.88	247.80
732.21	247.56
732.54	247.36
732.87	247.17
733.20	247.00
733.53	246.83
733.86	246.65
734.19	246.45
734.52	246.30
734.85	246.26
735.18	246.06
735.51	245.93
735.84	245.78
736.17	245.66
736.50	245.39
736.83	245.44
737.16	245.28
737.49	245.11
737.82	244.93
738.15	244.78
738.48	244.62
738.81	244.43
739.14	244.25
739.47	244.07
739.80	243.90
740.13	243.74
740.46	243.55
740.79	243.37
741.12	243.20
741.45	243.02
741.78	242.76
742.11	242.64
742.44	242.42
742.77	242.28
743.10	242.11
743.43	241.95
743.75	241.61
744.08	241.71
744.41	241.55
744.74	241.41
745.07	241.24
745.40	241.13
745.73	241.07
746.06	240.94
746.39	240.84
746.71	240.70
747.04	240.54
747.37	240.41
747.70	240.30
748.03	240.17
748.36	240.08
748.68	239.94
749.01	239.77
749.34	239.66
749.67	239.53
750.00	239.44
750.33	239.46
750.65	239.36
750.98	238.99
751.31	238.89
751.64	238.78
751.97	238.75
752.29	238.62
752.62	238.42
752.95	238.29
753.28	238.15
753.60	238.02
753.93	237.96
754.26	237.85
754.59	237.69
754.91	237.57
755.24	237.44
755.57	237.34
755.90	237.24
756.22	237.11
756.55	236.97
756.88	236.82
757.20	236.59
757.53	236.43
757.86	236.31
758.19	236.21
758.51	236.10
758.84	235.93
759.17	235.81
759.49	235.72
759.82	235.71
760.15	235.63
760.47	235.54
760.80	235.39
761.13	235.33
761.45	235.25
761.78	235.16
762.11	235.08
762.43	234.98
762.76	234.89
763.08	234.82
763.41	234.77
763.74	234.72
764.06	234.64
764.39	234.57
764.71	234.50
765.04	234.40
765.37	234.32
765.69	234.24
766.02	234.17
766.34	234.08
766.67	233.94
767.00	233.91
767.32	233.95
767.65	234.00
767.97	233.92
768.30	233.86
768.62	233.80
768.95	233.72
769.27	233.65
769.60	233.61
769.92	233.52
770.25	233.41
770.57	233.32
770.90	233.26
771.22	233.19
771.55	233.14
771.87	233.11
772.20	233.05
772.52	233.14
772.85	233.30
773.17	233.25
773.50	233.18
773.82	233.09
774.15	232.94
774.47	232.77
774.80	232.69
775.12	232.64
775.45	232.58
775.77	232.54
776.09	232.51
776.42	232.46
776.74	232.46
777.07	232.41
777.39	232.38
777.72	232.31
778.04	232.28
778.36	232.21
778.69	232.17
779.01	232.14
779.33	231.94
779.66	231.70
779.98	231.66
780.31	231.64
780.63	231.67
780.95	231.67
781.28	231.63
781.60	231.59
781.92	231.55
782.25	231.52
782.57	231.48
782.89	231.43
783.22	231.38
783.54	231.31
783.86	231.30
784.19	231.26
784.51	231.29
784.83	231.24
785.16	231.20
785.48	231.18
785.80	231.15
786.12	231.13
786.45	231.10
786.77	231.07
787.09	231.03
787.42	230.94
787.74	230.91
788.06	230.91
788.38	230.87
788.71	230.84
789.03	230.81
789.35	230.80
789.67	230.76
789.99	230.75
790.32	230.70
790.64	230.70
790.96	230.84
791.28	230.75
791.61	230.71
791.93	230.70
792.25	230.67
792.57	230.76
792.89	230.72
793.21	230.71
793.54	230.66
793.86	230.60
794.18	230.59
794.50	230.52
794.82	230.49
795.14	230.49
795.47	230.50
795.79	230.49
796.11	230.42
796.43	230.39
796.75	230.36
797.07	230.35
797.39	230.31
797.71	230.13
798.04	230.12
798.36	230.10
798.68	230.07
799.00	230.05
799.32	229.95
799.64	229.96
799.96	229.94
800.28	229.95
800.60	229.94
800.92	229.92
801.24	229.91
801.56	229.90
801.89	229.86
802.21	229.85
802.53	229.80
802.85	229.81
803.17	229.89
803.49	229.82
803.81	229.79
804.13	229.76
804.45	229.73
804.77	229.73
805.09	229.70
805.41	229.67
805.73	229.62
806.05	229.56
806.37	229.51
806.69	229.46
807.01	229.42
807.33	229.42
807.65	229.34
807.97	229.40
808.28	229.36
808.60	229.35
808.92	229.30
809.24	229.39
809.56	229.35
809.88	229.26
810.20	229.27
810.52	229.29
810.84	229.25
811.16	229.21
811.48	229.18
811.80	229.24
812.12	229.23
812.43	229.25
812.75	229.24
813.07	229.22
813.39	229.23
813.71	229.19
814.03	229.16
814.35	229.16
814.67	229.07
814.98	229.04
815.30	229.02
815.62	228.98
815.94	228.86
816.26	228.87
816.58	228.83
816.89	228.83
817.21	228.76
817.53	228.77
817.85	228.77
818.17	228.74
818.48	228.66
818.80	228.67
819.12	228.63
819.44	228.60
819.76	228.57
820.07	228.55
820.39	228.53
820.71	228.55
821.03	228.54
821.34	228.52
821.66	228.53
821.98	228.54
822.30	228.53
822.61	228.62
822.93	228.59
823.25	228.58
823.57	228.55
823.88	228.57
824.20	228.55
824.52	228.57
824.83	228.55
825.15	228.52
825.47	228.50
825.79	228.50
826.10	228.49
826.42	228.49
826.74	228.50
827.05	228.49
827.37	228.48
827.69	228.46
828.00	228.46
828.32	228.45
828.64	228.42
828.95	228.51
829.27	228.46
829.58	228.44
829.90	228.46
830.22	228.46
830.53	228.43
830.85	228.41
831.17	228.36
831.48	228.37
831.80	228.38
832.11	228.36
832.43	228.33
832.75	228.31
833.06	228.40
833.38	228.34
833.69	228.33
834.01	228.32
834.32	228.31
834.64	228.27
834.96	228.27
835.27	228.25
835.59	228.18
835.90	228.14
836.22	228.14
836.53	228.09
836.85	228.07
837.16	228.24
837.48	228.23
837.79	228.29
838.11	228.27
838.42	228.27
838.74	228.28
839.05	228.27
839.37	228.27
839.68	228.16
840.00	228.15
840.31	228.17
840.63	228.15
840.94	228.14
841.26	228.12
841.57	228.11
841.88	228.11
842.20	228.08
842.51	228.05
842.83	228.04
843.14	228.20
843.46	228.19
843.77	228.08
844.08	228.06
844.40	228.00
844.71	228.00
845.03	227.97
845.34	227.95
845.65	227.94
845.97	227.95
846.28	227.97
846.60	227.98
846.91	227.94
847.22	227.93
847.54	227.96
847.85	227.98
848.16	227.95
848.48	227.92
848.79	227.99
849.10	228.01
849.42	228.01
849.73	227.84
850.04	227.84
850.36	227.78
850.67	227.81
850.98	227.81
851.30	227.82
851.61	227.82
851.92	227.82
852.23	227.86
852.55	227.86
852.86	227.85
853.17	227.87
853.49	227.92
853.80	227.95
854.11	227.97
854.42	227.99
854.74	227.99
855.05	227.99
855.36	227.89
855.67	227.90
855.99	227.89
856.30	228.11
856.61	228.10
856.92	228.11
857.23	228.11
857.55	228.09
857.86	228.07
858.17	228.09
858.48	228.05
858.79	228.01
859.11	228.03
859.42	228.01
859.73	227.98
860.04	227.95
860.35	227.89
860.66	227.82
860.98	227.81
861.29	227.83
861.60	227.82
861.91	227.86
862.22	227.84
862.53	227.81
862.84	227.60
863.16	227.64
863.47	227.59
863.78	227.57
864.09	227.58
864.40	227.60
864.71	227.60
865.02	227.63
865.33	227.60
865.64	227.56
865.95	227.55
866.27	227.66
866.58	227.65
866.89	227.67
867.20	227.67
867.51	227.63
867.82	227.62
868.13	227.68
868.44	227.64
868.75	227.66
869.06	227.68
869.37	227.70
869.68	227.65
869.99	227.69
870.30	227.70
870.61	227.72
870.92	227.69
871.23	227.67
871.54	227.68
871.85	227.73
872.16	227.76
872.47	227.75
872.78	227.64
873.09	227.65
873.40	227.63
873.71	227.65
874.02	227.65
874.33	227.64
874.64	227.60
874.95	227.63
875.26	227.59
875.56	227.57
875.87	227.56
876.18	227.55
876.49	227.73
876.80	227.71
877.11	227.67
877.42	227.67
877.73	227.68
878.04	227.65
878.35	227.65
878.66	227.64
878.96	227.64
879.27	227.63
879.58	227.63
879.89	227.61
880.20	227.66
880.51	227.66
880.82	227.65
881.12	227.66
881.43	227.61
881.74	227.59
882.05	227.58
882.36	227.58
882.67	227.59
882.97	227.39
883.28	227.38
883.59	227.38
883.90	227.40
884.21	227.43
884.51	227.42
884.82	227.39
885.13	227.38
885.44	227.38
885.74	227.40
886.05	227.39
886.36	227.40
886.67	227.34
886.98	227.43
887.28	227.45
887.59	227.45
887.90	227.46
888.20	227.47
888.51	227.52
888.82	227.50
889.13	227.52
889.43	227.67
889.74	227.66
890.05	227.66
890.35	227.64
890.66	227.60
890.97	227.58
891.28	227.57
891.58	227.57
891.89	227.56
892.20	227.53
892.50	227.51
892.81	227.50
893.12	227.49
893.42	227.40
893.73	227.40
894.04	227.40
894.34	227.41
894.65	227.40
894.95	227.38
895.26	227.38
895.57	227.46
895.87	227.28
896.18	227.30
896.48	227.31
896.79	227.31
897.10	227.34
897.40	227.36
897.71	227.38
898.01	227.37
898.32	227.38
898.63	227.39
898.93	227.40
899.24	227.40
899.54	227.40
899.85	227.38
900.15	227.37
900.46	227.37
900.76	227.38
901.07	227.38
901.38	227.36
901.68	227.40
901.99	227.30
902.29	227.31
902.60	227.29
902.90	227.27
903.21	227.26
903.51	227.24
903.82	227.26
904.12	227.25
904.43	227.26
904.73	227.27
905.03	227.28
905.34	227.44
905.64	227.43
905.95	227.43
906.25	227.43
906.56	227.42
906.86	227.42
907.17	227.41
907.47	227.41
907.77	227.40
908.08	227.35
908.38	227.36
908.69	227.38
908.99	227.41
909.30	227.43
909.60	227.43
909.90	227.42
910.21	227.37
910.51	227.34
910.81	227.34
911.12	227.34
911.42	227.33
911.73	227.14
912.03	227.16
912.33	227.19
912.64	227.18
912.94	227.16
913.24	227.13
913.55	227.13
913.85	227.12
914.15	227.15
914.46	227.17
914.76	227.15
915.06	227.13
915.37	227.10
915.67	227.09
915.97	227.08
916.27	227.06
916.58	227.08
916.88	227.09
917.18	227.08
917.49	227.20
917.79	227.20
918.09	227.23
918.39	227.28
918.70	227.26
919.00	227.28
919.30	227.37
919.60	227.37
919.91	227.35
920.21	227.37
920.51	227.31
920.81	227.30
921.12	227.34
921.42	227.33
921.72	227.34
922.02	227.35
922.32	227.38
922.63	227.40
922.93	227.49
923.23	227.50
923.53	227.49
923.83	227.36
924.13	227.37
924.44	227.37
924.74	227.39
925.04	227.43
925.34	227.42
925.64	227.35
925.94	227.34
926.24	227.45
926.55	227.42
926.85	227.46
927.15	227.47
927.45	227.47
927.75	227.46
928.05	227.47
928.35	227.45
928.65	227.47
928.95	227.47
929.26	227.38
929.56	227.41
929.86	227.43
930.16	227.41
930.46	227.40
930.76	227.40
931.06	227.32
931.36	227.26
931.66	227.29
931.96	227.30
932.26	227.31
932.56	227.23
932.86	227.26
933.16	227.26
933.46	227.25
933.76	227.21
934.06	227.26
934.36	227.32
934.66	227.33
934.96	227.31
935.26	227.31
935.56	227.32
935.86	227.28
936.16	227.26
936.46	227.24
936.76	227.24
937.06	227.22
937.36	227.23
937.66	227.25
937.96	227.24
938.26	227.21
938.56	227.19
938.86	227.20
939.16	227.22
939.46	227.23
939.76	227.23
940.06	227.24
940.35	227.20
940.65	227.10
940.95	227.11
941.25	227.07
941.55	227.05
941.85	227.05
942.15	227.09
942.45	227.14
942.75	227.15
943.04	227.16
943.34	227.19
943.64	227.17
943.94	227.15
944.24	227.15
944.54	227.16
944.84	227.16
945.13	227.12
945.43	227.10
945.73	227.08
946.03	227.07
946.33	227.06
946.62	227.06
946.92	227.06
947.22	227.06
947.52	227.08
947.82	227.11
948.11	227.08
948.41	227.04
948.71	226.99
949.01	227.00
949.31	226.98
949.60	226.97
949.90	226.99
950.20	226.99
950.50	226.98
950.79	226.98
951.09	227.00
951.39	227.00
951.69	226.99
951.98	227.02
952.28	227.02
952.58	227.01
952.87	227.00
953.17	227.02
953.47	227.00
953.76	226.99
954.06	226.96
954.36	226.94
954.66	226.94
954.95	226.98
955.25	227.00
955.55	227.02
955.84	226.99
956.14	227.00
956.44	227.01
956.73	226.98
957.03	226.99
957.32	226.99
957.62	226.99
957.92	227.02
958.21	227.01
958.51	227.21
958.81	227.23
959.10	227.26
959.40	227.30
959.69	227.30
959.99	227.32
960.29	227.33
960.58	227.33
960.88	227.40
961.17	227.38
961.47	227.38
961.76	227.37
962.06	227.39
962.36	227.37
962.65	227.37
962.95	227.38
963.24	227.36
963.54	227.36
963.83	227.36
964.13	227.36
964.42	227.35
964.72	227.19
965.01	227.20
965.31	227.18
965.60	227.14
965.90	227.26
966.19	227.21
966.49	227.22
966.78	227.22
967.08	227.20
967.37	227.20
967.67	227.16
967.96	227.19
968.26	227.19
968.55	227.22
968.85	227.22
969.14	227.22
969.43	227.23
969.73	227.22
970.02	227.22
970.32	227.20
970.61	227.18
970.91	227.13
971.20	227.10
971.49	227.09
971.79	227.12
972.08	226.98
972.38	227.01
972.67	227.01
972.96	227.03
973.26	226.99
973.55	227.05
973.85	227.06
974.14	227.04
974.43	227.05
974.73	227.02
975.02	227.01
975.31	227.02
975.61	227.00
975.90	226.98
976.19	226.97
976.49	226.99
976.78	226.99
977.07	226.99
977.37	227.00
977.66	227.02
977.95	226.99
978.24	227.00
978.54	227.05
978.83	227.03
979.12	227.02
979.42	227.01
979.71	226.98
980.00	226.97
980.29	226.98
980.59	226.95
980.88	227.01
981.17	227.00
981.46	227.00
981.76	227.01
982.05	227.06
982.34	227.08
982.63	227.08
982.93	227.09
983.22	227.13
983.51	227.14
983.80	227.17
984.09	227.20
984.39	227.19
984.68	227.15
984.97	227.15
985.26	227.14
985.55	227.18
985.85	227.14
986.14	227.17
986.43	227.18
986.72	227.17
987.01	227.10
987.30	227.11
987.59	227.10
987.89	227.11
988.18	227.05
988.47	227.03
988.76	227.02
989.05	227.00
989.34	226.97
989.63	227.00
989.92	226.96
990.22	226.94
990.51	226.95
990.80	226.93
991.09	226.96
991.38	226.98
991.67	226.95
991.96	226.94
992.25	226.95
992.54	226.91
992.83	226.91
993.12	226.92
993.41	226.94
993.70	227.01
993.99	227.04
994.28	227.07
994.58	227.09
994.87	227.07
995.16	227.06
995.45	227.04
995.74	226.98
996.03	227.01
996.32	227.03
996.61	227.05
996.90	227.06
997.19	227.04
997.48	227.04
997.77	227.02
998.06	227.04
998.34	227.01
998.63	227.02
998.92	227.03
999.21	227.06
999.50	227.05
999.79	226.99
1000.08	226.98
1000.37	226.97
1000.66	226.96
1000.95	227.01
1001.24	227.03
1001.53	227.06
1001.82	227.07
1002.11	227.03
1002.40	227.04
1002.68	227.08
1002.97	227.20
1003.26	227.18
1003.55	227.15
1003.84	227.18
1004.13	227.23
1004.42	227.22
1004.71	227.23
1004.99	227.21
1005.28	227.25
1005.57	227.24
1005.86	227.22
1006.15	227.21
1006.44	227.19
1006.72	227.21
1007.01	227.18
1007.30	227.18
1007.59	227.17
1007.88	227.16
1008.17	227.18
1008.45	227.14
1008.74	227.07
1009.03	226.99
1009.32	227.00
1009.60	227.00
1009.89	226.99
1010.18	226.91
1010.47	226.89
1010.76	226.88
1011.04	226.87
1011.33	226.86
1011.62	226.87
1011.91	226.89
1012.19	226.90
1012.48	226.91
1012.77	226.90
1013.05	226.95
1013.34	226.94
1013.63	226.93
1013.92	226.95
1014.20	226.93
1014.49	226.95
1014.78	226.96
1015.06	226.90
1015.35	226.90
1015.64	226.91
1015.92	226.94
1016.21	226.95
1016.50	226.97
1016.78	226.98
1017.07	227.01
1017.36	226.97
1017.64	226.93
1017.93	226.95
1018.22	226.94
1018.50	226.93
1018.79	226.93
1019.08	226.87
1019.36	226.87
1019.65	226.85
1019.93	226.89
1020.22	226.93
1020.51	227.01
1020.79	226.99
1021.08	226.79
1021.36	226.65
1021.65	227.16
1021.94	226.80
1022.22	227.03
1022.51	226.49
1022.79	227.72
1023.08	227.25
1023.36	229.16
1023.65	226.37
>>>>>End Processed Spectral Data<<<<<
