SpectraSuite Data File
++++++++++++++++++++++++++++++++++++
Date: Tue Oct 06 13:44:36 EDT 2015
User: lab3
Dark Spectrum Present: No
Reference Spectrum Present: No
Number of Sampled Component Spectra: 1
Spectrometers: USB2E7196
Integration Time (usec): 66000 (USB2E7196)
Spectra Averaged: 1000 (USB2E7196)
Boxcar Smoothing: 10 (USB2E7196)
Correct for Electrical Dark: No (USB2E7196)
Strobe/Lamp Enabled: No (USB2E7196)
Correct for Detector Non-linearity: No (USB2E7196)
Correct for Stray Light: No (USB2E7196)
Number of Pixels in Processed Spectrum: 2048
>>>>>Begin Processed Spectral Data<<<<<
339.09	0.00
339.48	215.44
339.86	217.03
340.24	218.40
340.63	219.94
341.01	224.03
341.39	222.46
341.78	224.21
342.16	225.41
342.54	225.59
342.93	214.11
343.31	224.92
343.69	225.47
344.07	225.94
344.46	226.39
344.84	226.79
345.22	226.98
345.60	227.27
345.99	227.47
346.37	227.61
346.75	227.73
347.13	227.82
347.52	227.90
347.90	228.03
348.28	228.06
348.66	228.14
349.05	228.13
349.43	228.20
349.81	228.28
350.19	228.33
350.57	228.41
350.96	228.51
351.34	228.62
351.72	228.72
352.10	228.84
352.48	228.92
352.87	228.97
353.25	229.04
353.63	229.09
354.01	229.15
354.39	229.23
354.77	229.32
355.15	229.44
355.54	229.47
355.92	229.48
356.30	229.57
356.68	229.76
357.06	229.83
357.44	229.87
357.82	229.93
358.20	230.15
358.58	230.22
358.97	230.29
359.35	230.40
359.73	230.49
360.11	230.55
360.49	230.61
360.87	230.67
361.25	230.75
361.63	230.85
362.01	230.91
362.39	230.94
362.77	231.00
363.15	231.02
363.53	231.06
363.91	231.11
364.29	231.13
364.67	230.99
365.05	231.02
365.43	231.06
365.81	231.10
366.19	231.06
366.57	231.14
366.95	231.14
367.33	231.08
367.71	231.07
368.09	231.11
368.47	231.10
368.85	231.09
369.23	231.12
369.61	231.04
369.99	231.07
370.37	231.07
370.75	231.18
371.13	231.14
371.51	231.09
371.89	231.07
372.27	231.06
372.65	231.02
373.03	230.99
373.41	230.94
373.78	230.89
374.16	230.75
374.54	230.65
374.92	230.60
375.30	230.56
375.68	230.48
376.06	230.43
376.44	230.38
376.82	230.35
377.19	230.29
377.57	230.25
377.95	230.16
378.33	230.11
378.71	229.90
379.09	229.85
379.47	229.84
379.84	229.79
380.22	229.72
380.60	229.65
380.98	229.60
381.36	229.54
381.73	229.47
382.11	229.47
382.49	229.42
382.87	229.36
383.25	229.32
383.62	229.48
384.00	229.41
384.38	229.37
384.76	229.37
385.13	229.39
385.51	229.35
385.89	229.28
386.27	229.24
386.64	229.23
387.02	229.19
387.40	229.13
387.78	229.11
388.15	229.08
388.53	229.05
388.91	229.03
389.29	229.01
389.66	229.02
390.04	228.98
390.42	229.00
390.79	228.99
391.17	228.98
391.55	228.79
391.92	228.78
392.30	228.78
392.68	228.73
393.05	228.70
393.43	228.71
393.81	228.73
394.18	228.72
394.56	228.74
394.94	228.78
395.31	228.79
395.69	228.87
396.06	228.93
396.44	228.97
396.82	228.99
397.19	229.11
397.57	229.13
397.95	229.20
398.32	229.20
398.70	229.27
399.07	229.37
399.45	229.42
399.82	229.49
400.20	229.55
400.58	229.65
400.95	229.68
401.33	229.81
401.70	230.03
402.08	230.18
402.45	230.31
402.83	230.49
403.20	230.65
403.58	230.78
403.95	230.97
404.33	231.20
404.71	231.41
405.08	231.71
405.46	231.95
405.83	232.23
406.21	232.52
406.58	232.84
406.96	233.16
407.33	233.55
407.70	233.97
408.08	234.54
408.45	235.03
408.83	235.56
409.20	236.05
409.58	236.50
409.95	237.11
410.33	237.77
410.70	238.40
411.08	239.14
411.45	239.93
411.82	240.74
412.20	241.66
412.57	242.74
412.95	243.61
413.32	244.74
413.69	245.89
414.07	247.12
414.44	248.46
414.82	249.83
415.19	251.44
415.56	253.07
415.94	254.78
416.31	256.69
416.68	258.61
417.06	260.82
417.43	262.90
417.81	265.29
418.18	267.72
418.55	270.37
418.93	273.14
419.30	276.05
419.67	279.13
420.04	282.30
420.42	285.61
420.79	289.42
421.16	293.28
421.54	297.18
421.91	301.26
422.28	305.49
422.66	310.07
423.03	314.39
423.40	318.95
423.77	323.82
424.15	328.80
424.52	333.96
424.89	339.57
425.26	345.12
425.64	350.27
426.01	356.06
426.38	361.98
426.75	368.06
427.13	374.25
427.50	380.73
427.87	387.43
428.24	394.18
428.61	400.66
428.99	407.61
429.36	415.31
429.73	422.70
430.10	430.03
430.47	437.54
430.85	445.33
431.22	453.61
431.59	462.08
431.96	470.33
432.33	479.53
432.70	488.29
433.08	498.70
433.45	508.49
433.82	518.09
434.19	528.85
434.56	539.42
434.93	549.65
435.30	559.84
435.68	571.42
436.05	582.71
436.42	594.00
436.79	604.35
437.16	615.47
437.53	627.42
437.90	639.44
438.27	651.13
438.64	663.72
439.01	675.21
439.38	685.83
439.75	696.08
440.13	707.73
440.50	718.79
440.87	727.57
441.24	737.22
441.61	747.88
441.98	755.70
442.35	764.98
442.72	774.50
443.09	783.63
443.46	789.64
443.83	794.13
444.20	797.85
444.57	803.31
444.94	806.69
445.31	810.06
445.68	812.90
446.05	815.09
446.42	814.91
446.79	814.53
447.16	814.21
447.53	814.06
447.90	810.80
448.27	807.63
448.64	802.58
449.01	799.28
449.37	792.11
449.74	785.70
450.11	777.28
450.48	767.96
450.85	758.53
451.22	750.33
451.59	742.43
451.96	735.36
452.33	724.95
452.70	715.57
453.07	704.23
453.43	692.95
453.80	681.95
454.17	671.42
454.54	661.57
454.91	650.42
455.28	639.81
455.65	629.78
456.02	619.27
456.38	610.80
456.75	599.83
457.12	590.96
457.49	581.99
457.86	573.61
458.23	566.23
458.59	558.08
458.96	549.78
459.33	542.41
459.70	534.92
460.07	529.12
460.43	522.34
460.80	516.00
461.17	510.43
461.54	504.51
461.91	498.95
462.27	493.32
462.64	488.70
463.01	483.42
463.38	478.19
463.74	473.43
464.11	469.21
464.48	465.43
464.85	461.31
465.21	458.14
465.58	454.61
465.95	450.61
466.32	447.39
466.68	444.23
467.05	441.07
467.42	438.00
467.78	434.72
468.15	431.72
468.52	429.51
468.88	426.61
469.25	423.94
469.62	421.82
469.98	419.49
470.35	417.41
470.72	415.56
471.08	413.64
471.45	412.04
471.82	410.23
472.18	408.35
472.55	407.12
472.92	405.63
473.28	404.44
473.65	403.15
474.02	401.98
474.38	400.97
474.75	400.37
475.11	399.48
475.48	399.05
475.85	398.62
476.21	398.37
476.58	398.21
476.94	398.40
477.31	398.44
477.67	398.56
478.04	398.87
478.41	399.25
478.77	399.83
479.14	400.16
479.50	400.91
479.87	401.89
480.23	402.85
480.60	403.77
480.96	404.70
481.33	406.11
481.69	407.49
482.06	408.84
482.42	410.12
482.79	411.71
483.15	413.54
483.52	415.63
483.88	417.63
484.25	419.75
484.61	421.95
484.98	424.32
485.34	427.00
485.71	429.77
486.07	432.75
486.44	435.66
486.80	438.96
487.17	442.32
487.53	445.97
487.90	449.80
488.26	454.00
488.62	458.40
488.99	462.81
489.35	467.47
489.72	472.52
490.08	477.79
490.44	483.17
490.81	488.74
491.17	494.41
491.54	500.47
491.90	506.69
492.26	513.32
492.63	520.27
492.99	527.47
493.36	534.97
493.72	542.84
494.08	550.89
494.45	559.32
494.81	568.14
495.17	577.21
495.54	586.77
495.90	596.71
496.26	606.94
496.63	617.37
496.99	628.16
497.35	639.38
497.72	650.94
498.08	662.95
498.44	675.24
498.80	688.34
499.17	701.75
499.53	715.62
499.89	729.81
500.26	744.09
500.62	758.66
500.98	773.91
501.34	789.34
501.71	805.49
502.07	821.91
502.43	838.79
502.79	855.76
503.16	873.22
503.52	890.91
503.88	909.06
504.24	927.70
504.60	946.55
504.97	965.82
505.33	985.59
505.69	1006.29
506.05	1027.04
506.41	1047.70
506.78	1068.66
507.14	1090.35
507.50	1112.57
507.86	1135.20
508.22	1157.98
508.59	1180.62
508.95	1204.09
509.31	1227.99
509.67	1252.57
510.03	1277.03
510.39	1301.87
510.75	1326.70
511.12	1351.61
511.48	1376.55
511.84	1401.56
512.20	1427.05
512.56	1452.96
512.92	1478.68
513.28	1504.12
513.64	1529.90
514.00	1555.75
514.37	1581.82
514.73	1607.63
515.09	1632.97
515.45	1658.55
515.81	1684.24
516.17	1709.92
516.53	1734.96
516.89	1759.90
517.25	1784.93
517.61	1809.78
517.97	1834.82
518.33	1859.51
518.69	1884.07
519.05	1908.78
519.41	1933.40
519.77	1957.88
520.13	1982.15
520.49	2006.19
520.85	2030.24
521.21	2054.16
521.57	2078.25
521.93	2101.31
522.29	2124.89
522.65	2147.94
523.01	2170.82
523.37	2192.85
523.73	2215.36
524.09	2238.00
524.45	2260.68
524.81	2282.51
525.17	2304.15
525.53	2325.12
525.89	2346.33
526.25	2367.14
526.61	2386.87
526.97	2406.72
527.33	2426.17
527.68	2444.75
528.04	2462.72
528.40	2479.64
528.76	2497.09
529.12	2513.40
529.48	2530.09
529.84	2545.47
530.20	2562.00
530.56	2577.46
530.91	2592.78
531.27	2607.11
531.63	2620.44
531.99	2633.51
532.35	2645.02
532.71	2656.55
533.07	2668.38
533.42	2678.64
533.78	2689.66
534.14	2700.91
534.50	2710.76
534.86	2720.77
535.21	2728.79
535.57	2736.94
535.93	2745.52
536.29	2752.92
536.65	2760.49
537.00	2765.87
537.36	2771.65
537.72	2775.72
538.08	2779.46
538.44	2782.40
538.79	2785.68
539.15	2788.34
539.51	2790.35
539.87	2793.03
540.22	2793.65
540.58	2794.72
540.94	2795.48
541.29	2794.73
541.65	2792.53
542.01	2790.35
542.37	2787.09
542.72	2785.57
543.08	2782.71
543.44	2779.67
543.79	2774.81
544.15	2769.87
544.51	2765.89
544.87	2759.86
545.22	2753.19
545.58	2746.80
545.94	2741.19
546.29	2733.84
546.65	2725.76
547.01	2717.87
547.36	2709.55
547.72	2701.16
548.07	2691.58
548.43	2681.83
548.79	2671.01
549.14	2661.23
549.50	2651.35
549.86	2640.89
550.21	2628.56
550.57	2617.63
550.92	2604.85
551.28	2592.80
551.64	2580.95
551.99	2569.12
552.35	2557.44
552.70	2545.56
553.06	2534.03
553.41	2521.30
553.77	2508.19
554.13	2495.40
554.48	2481.74
554.84	2467.57
555.19	2454.37
555.55	2440.34
555.90	2426.47
556.26	2413.51
556.61	2399.74
556.97	2385.01
557.32	2370.63
557.68	2356.48
558.03	2341.68
558.39	2327.78
558.74	2314.10
559.10	2298.40
559.45	2283.16
559.81	2268.67
560.16	2253.82
560.52	2238.60
560.87	2224.22
561.23	2209.34
561.58	2194.76
561.94	2179.47
562.29	2164.38
562.64	2149.19
563.00	2134.11
563.35	2119.62
563.71	2104.98
564.06	2089.89
564.42	2075.30
564.77	2060.75
565.12	2046.70
565.48	2032.54
565.83	2017.96
566.19	2003.55
566.54	1989.64
566.89	1974.57
567.25	1958.96
567.60	1944.57
567.96	1929.61
568.31	1914.08
568.66	1899.45
569.02	1884.86
569.37	1870.39
569.72	1856.20
570.08	1841.87
570.43	1827.54
570.78	1812.39
571.14	1797.24
571.49	1782.55
571.84	1768.69
572.20	1753.50
572.55	1738.46
572.90	1722.89
573.26	1707.39
573.61	1691.60
573.96	1676.45
574.31	1661.94
574.67	1647.88
575.02	1632.97
575.37	1617.77
575.72	1602.44
576.08	1587.46
576.43	1572.56
576.78	1557.70
577.13	1542.95
577.49	1528.23
577.84	1513.45
578.19	1498.85
578.54	1484.28
578.90	1469.60
579.25	1454.37
579.60	1440.37
579.95	1426.27
580.30	1412.36
580.66	1398.50
581.01	1384.84
581.36	1371.00
581.71	1357.07
582.06	1343.22
582.42	1329.57
582.77	1316.27
583.12	1303.28
583.47	1290.14
583.82	1277.13
584.17	1264.17
584.53	1251.15
584.88	1238.54
585.23	1225.68
585.58	1213.12
585.93	1200.60
586.28	1188.68
586.63	1176.63
586.98	1164.47
587.34	1152.69
587.69	1140.68
588.04	1129.08
588.39	1117.56
588.74	1105.97
589.09	1094.74
589.44	1083.03
589.79	1071.86
590.14	1060.86
590.49	1049.94
590.84	1039.32
591.19	1028.74
591.54	1018.14
591.89	1007.37
592.25	996.61
592.60	985.92
592.95	975.44
593.30	965.00
593.65	954.52
594.00	944.33
594.35	934.74
594.70	924.71
595.05	915.38
595.40	905.84
595.75	896.21
596.10	887.06
596.45	877.80
596.80	868.91
597.15	860.01
597.50	851.14
597.85	842.63
598.19	834.04
598.54	825.50
598.89	817.11
599.24	809.17
599.59	801.31
599.94	793.93
600.29	786.32
600.64	778.82
600.99	771.26
601.34	763.96
601.69	756.08
602.04	748.78
602.39	741.58
602.74	734.58
603.08	727.67
603.43	720.75
603.78	713.93
604.13	707.26
604.48	700.57
604.83	694.14
605.18	687.68
605.53	681.33
605.87	674.82
606.22	668.64
606.57	662.41
606.92	656.05
607.27	649.84
607.62	644.00
607.96	638.25
608.31	632.78
608.66	627.16
609.01	621.81
609.36	616.65
609.70	611.42
610.05	606.15
610.40	600.98
610.75	595.77
611.10	590.90
611.44	585.97
611.79	581.17
612.14	576.32
612.49	571.46
612.83	566.83
613.18	562.47
613.53	558.08
613.88	553.71
614.22	549.58
614.57	545.33
614.92	541.09
615.27	536.98
615.61	532.85
615.96	528.88
616.31	524.94
616.65	520.98
617.00	517.09
617.35	513.31
617.70	509.63
618.04	506.09
618.39	502.47
618.74	499.02
619.08	495.50
619.43	492.06
619.78	488.77
620.12	485.46
620.47	482.32
620.82	479.18
621.16	476.12
621.51	473.19
621.85	470.31
622.20	467.48
622.55	464.65
622.89	461.90
623.24	459.26
623.59	456.63
623.93	454.07
624.28	451.62
624.62	449.38
624.97	447.11
625.32	444.70
625.66	442.29
626.01	439.93
626.35	437.76
626.70	435.53
627.04	433.42
627.39	431.28
627.73	429.13
628.08	427.12
628.43	425.15
628.77	423.13
629.12	421.25
629.46	419.33
629.81	417.53
630.15	415.67
630.50	413.81
630.84	412.04
631.19	410.33
631.53	408.68
631.88	406.82
632.22	405.06
632.57	403.64
632.91	402.21
633.26	400.82
633.60	399.37
633.95	398.02
634.29	396.55
634.64	395.15
634.98	393.64
635.32	392.27
635.67	390.97
636.01	389.68
636.36	388.42
636.70	387.31
637.05	386.04
637.39	384.89
637.73	383.76
638.08	382.67
638.42	381.58
638.77	380.36
639.11	379.13
639.45	377.98
639.80	376.77
640.14	375.62
640.49	374.42
640.83	373.27
641.17	372.13
641.52	371.04
641.86	369.98
642.20	369.11
642.55	368.03
642.89	366.99
643.23	365.97
643.58	365.07
643.92	363.99
644.26	362.99
644.61	362.07
644.95	361.11
645.29	360.14
645.64	359.16
645.98	358.24
646.32	357.42
646.66	356.52
647.01	355.63
647.35	354.81
647.69	353.98
648.04	353.19
648.38	352.37
648.72	351.60
649.06	350.85
649.41	350.02
649.75	349.23
650.09	348.49
650.43	347.77
650.78	346.96
651.12	346.20
651.46	345.47
651.80	344.76
652.14	344.03
652.49	343.34
652.83	342.60
653.17	341.89
653.51	341.20
653.85	340.59
654.20	339.96
654.54	339.22
654.88	338.54
655.22	337.88
655.56	337.14
655.90	336.43
656.25	335.75
656.59	335.09
656.93	334.49
657.27	333.92
657.61	333.24
657.95	332.65
658.29	332.04
658.64	331.51
658.98	330.89
659.32	330.29
659.66	329.71
660.00	329.16
660.34	328.61
660.68	328.02
661.02	327.39
661.36	326.78
661.70	326.22
662.05	325.66
662.39	325.16
662.73	324.74
663.07	324.32
663.41	323.82
663.75	323.29
664.09	322.78
664.43	322.16
664.77	321.67
665.11	321.09
665.45	320.56
665.79	320.04
666.13	319.50
666.47	318.97
666.81	318.42
667.15	317.83
667.49	317.36
667.83	316.94
668.17	316.48
668.51	316.04
668.85	315.61
669.19	315.26
669.53	314.73
669.87	314.22
670.21	313.73
670.55	313.28
670.89	312.92
671.23	312.49
671.57	312.07
671.91	311.68
672.25	311.31
672.58	310.95
672.92	310.48
673.26	310.08
673.60	309.68
673.94	309.29
674.28	308.93
674.62	308.54
674.96	308.07
675.30	307.67
675.64	307.24
675.97	306.80
676.31	306.29
676.65	305.86
676.99	305.50
677.33	305.03
677.67	304.60
678.01	304.06
678.34	303.61
678.68	303.21
679.02	302.74
679.36	302.31
679.70	301.84
680.04	301.41
680.37	300.98
680.71	300.55
681.05	300.15
681.39	299.73
681.73	299.26
682.06	298.80
682.40	298.35
682.74	297.97
683.08	297.62
683.42	297.20
683.75	296.78
684.09	296.26
684.43	295.83
684.77	295.38
685.10	294.99
685.44	294.62
685.78	294.21
686.12	293.81
686.45	293.36
686.79	292.90
687.13	292.51
687.46	292.06
687.80	291.64
688.14	291.14
688.48	290.71
688.81	290.28
689.15	289.94
689.49	289.50
689.82	289.02
690.16	288.50
690.50	288.08
690.83	287.66
691.17	287.21
691.51	286.78
691.84	286.41
692.18	285.97
692.52	285.49
692.85	285.06
693.19	284.69
693.52	284.29
693.86	283.91
694.20	283.47
694.53	283.07
694.87	282.60
695.21	282.19
695.54	281.75
695.88	281.30
696.21	280.80
696.55	280.37
696.88	279.95
697.22	279.52
697.56	279.11
697.89	278.65
698.23	278.25
698.56	277.80
698.90	277.39
699.23	276.95
699.57	276.55
699.90	276.11
700.24	275.62
700.58	275.22
700.91	274.84
701.25	274.61
701.58	274.29
701.92	273.97
702.25	273.62
702.59	273.24
702.92	272.86
703.26	272.48
703.59	272.09
703.93	271.86
704.26	271.51
704.60	271.10
704.93	270.72
705.26	270.32
705.60	269.99
705.93	269.56
706.27	269.25
706.60	268.91
706.94	268.61
707.27	268.21
707.61	267.83
707.94	267.43
708.27	266.89
708.61	266.43
708.94	266.03
709.28	265.66
709.61	265.29
709.94	264.97
710.28	264.65
710.61	264.37
710.95	263.88
711.28	263.67
711.61	263.35
711.95	263.06
712.28	262.73
712.61	262.37
712.95	262.13
713.28	261.87
713.61	261.51
713.95	261.15
714.28	260.86
714.61	260.53
714.95	260.23
715.28	259.93
715.61	259.64
715.95	259.38
716.28	259.06
716.61	258.78
716.95	258.45
717.28	258.14
717.61	257.80
717.94	257.52
718.28	257.11
718.61	256.82
718.94	256.52
719.27	256.26
719.61	256.02
719.94	255.72
720.27	255.36
720.60	255.10
720.94	254.86
721.27	254.61
721.60	254.40
721.93	254.12
722.27	253.93
722.60	253.70
722.93	253.42
723.26	253.20
723.59	252.93
723.93	252.73
724.26	252.51
724.59	252.29
724.92	252.06
725.25	251.88
725.59	251.66
725.92	251.47
726.25	251.25
726.58	251.03
726.91	250.79
727.24	250.60
727.57	250.36
727.91	250.10
728.24	249.90
728.57	249.67
728.90	249.50
729.23	249.23
729.56	249.11
729.89	248.91
730.22	248.70
730.55	248.50
730.89	248.29
731.22	248.07
731.55	247.86
731.88	247.67
732.21	247.44
732.54	247.23
732.87	247.03
733.20	246.85
733.53	246.67
733.86	246.50
734.19	246.31
734.52	246.17
734.85	246.14
735.18	245.93
735.51	245.80
735.84	245.63
736.17	245.53
736.50	245.26
736.83	245.30
737.16	245.14
737.49	244.98
737.82	244.82
738.15	244.67
738.48	244.52
738.81	244.35
739.14	244.18
739.47	244.02
739.80	243.86
740.13	243.73
740.46	243.55
740.79	243.38
741.12	243.22
741.45	243.04
741.78	242.78
742.11	242.69
742.44	242.51
742.77	242.38
743.10	242.19
743.43	242.04
743.75	241.71
744.08	241.84
744.41	241.68
744.74	241.53
745.07	241.36
745.40	241.27
745.73	241.22
746.06	241.08
746.39	240.98
746.71	240.83
747.04	240.67
747.37	240.55
747.70	240.45
748.03	240.32
748.36	240.23
748.68	240.11
749.01	239.93
749.34	239.82
749.67	239.71
750.00	239.62
750.33	239.63
750.65	239.53
750.98	239.16
751.31	239.05
751.64	238.95
751.97	238.93
752.29	238.79
752.62	238.58
752.95	238.47
753.28	238.33
753.60	238.21
753.93	238.14
754.26	238.05
754.59	237.87
754.91	237.74
755.24	237.61
755.57	237.51
755.90	237.40
756.22	237.27
756.55	237.13
756.88	236.99
757.20	236.77
757.53	236.63
757.86	236.52
758.19	236.44
758.51	236.34
758.84	236.16
759.17	236.05
759.49	235.98
759.82	235.97
760.15	235.90
760.47	235.80
760.80	235.67
761.13	235.61
761.45	235.54
761.78	235.46
762.11	235.38
762.43	235.27
762.76	235.19
763.08	235.14
763.41	235.08
763.74	235.00
764.06	234.92
764.39	234.85
764.71	234.77
765.04	234.67
765.37	234.58
765.69	234.50
766.02	234.43
766.34	234.35
766.67	234.21
767.00	234.17
767.32	234.20
767.65	234.25
767.97	234.16
768.30	234.09
768.62	234.03
768.95	233.94
769.27	233.89
769.60	233.84
769.92	233.74
770.25	233.64
770.57	233.56
770.90	233.50
771.22	233.43
771.55	233.38
771.87	233.33
772.20	233.28
772.52	233.38
772.85	233.54
773.17	233.48
773.50	233.43
773.82	233.34
774.15	233.20
774.47	233.03
774.80	232.97
775.12	232.91
775.45	232.85
775.77	232.82
776.09	232.79
776.42	232.76
776.74	232.78
777.07	232.73
777.39	232.69
777.72	232.63
778.04	232.60
778.36	232.54
778.69	232.51
779.01	232.49
779.33	232.29
779.66	232.05
779.98	232.00
780.31	231.97
780.63	232.00
780.95	232.00
781.28	231.96
781.60	231.92
781.92	231.89
782.25	231.87
782.57	231.82
782.89	231.77
783.22	231.70
783.54	231.62
783.86	231.60
784.19	231.55
784.51	231.58
784.83	231.53
785.16	231.51
785.48	231.46
785.80	231.42
786.12	231.41
786.45	231.37
786.77	231.36
787.09	231.32
787.42	231.22
787.74	231.19
788.06	231.17
788.38	231.14
788.71	231.09
789.03	231.07
789.35	231.07
789.67	231.03
789.99	231.03
790.32	230.99
790.64	230.99
790.96	231.14
791.28	231.06
791.61	231.03
791.93	231.00
792.25	230.98
792.57	231.08
792.89	231.03
793.21	231.02
793.54	230.97
793.86	230.92
794.18	230.90
794.50	230.84
794.82	230.81
795.14	230.82
795.47	230.84
795.79	230.81
796.11	230.75
796.43	230.72
796.75	230.70
797.07	230.69
797.39	230.65
797.71	230.49
798.04	230.48
798.36	230.47
798.68	230.46
799.00	230.45
799.32	230.33
799.64	230.35
799.96	230.32
800.28	230.35
800.60	230.31
800.92	230.31
801.24	230.28
801.56	230.29
801.89	230.25
802.21	230.23
802.53	230.18
802.85	230.20
803.17	230.28
803.49	230.21
803.81	230.18
804.13	230.15
804.45	230.10
804.77	230.10
805.09	230.08
805.41	230.04
805.73	229.99
806.05	229.94
806.37	229.90
806.69	229.87
807.01	229.83
807.33	229.84
807.65	229.75
807.97	229.82
808.28	229.77
808.60	229.76
808.92	229.71
809.24	229.81
809.56	229.76
809.88	229.68
810.20	229.68
810.52	229.70
810.84	229.67
811.16	229.64
811.48	229.60
811.80	229.66
812.12	229.64
812.43	229.66
812.75	229.67
813.07	229.64
813.39	229.63
813.71	229.60
814.03	229.57
814.35	229.58
814.67	229.50
814.98	229.47
815.30	229.45
815.62	229.41
815.94	229.28
816.26	229.30
816.58	229.25
816.89	229.27
817.21	229.21
817.53	229.20
817.85	229.19
818.17	229.17
818.48	229.08
818.80	229.10
819.12	229.06
819.44	229.01
819.76	228.98
820.07	228.96
820.39	228.95
820.71	228.95
821.03	228.95
821.34	228.92
821.66	228.92
821.98	228.93
822.30	228.92
822.61	229.03
822.93	228.99
823.25	228.98
823.57	228.95
823.88	228.96
824.20	228.96
824.52	228.99
824.83	228.97
825.15	228.95
825.47	228.93
825.79	228.94
826.10	228.93
826.42	228.92
826.74	228.92
827.05	228.92
827.37	228.91
827.69	228.89
828.00	228.89
828.32	228.89
828.64	228.87
828.95	228.96
829.27	228.89
829.58	228.88
829.90	228.89
830.22	228.90
830.53	228.86
830.85	228.84
831.17	228.78
831.48	228.77
831.80	228.77
832.11	228.75
832.43	228.72
832.75	228.71
833.06	228.81
833.38	228.74
833.69	228.74
834.01	228.73
834.32	228.71
834.64	228.70
834.96	228.70
835.27	228.69
835.59	228.63
835.90	228.59
836.22	228.58
836.53	228.54
836.85	228.51
837.16	228.69
837.48	228.70
837.79	228.74
838.11	228.75
838.42	228.74
838.74	228.76
839.05	228.74
839.37	228.73
839.68	228.63
840.00	228.64
840.31	228.65
840.63	228.63
840.94	228.61
841.26	228.58
841.57	228.56
841.88	228.57
842.20	228.53
842.51	228.50
842.83	228.49
843.14	228.66
843.46	228.64
843.77	228.54
844.08	228.51
844.40	228.48
844.71	228.45
845.03	228.43
845.34	228.40
845.65	228.41
845.97	228.41
846.28	228.41
846.60	228.41
846.91	228.37
847.22	228.36
847.54	228.39
847.85	228.40
848.16	228.39
848.48	228.36
848.79	228.43
849.10	228.44
849.42	228.46
849.73	228.29
850.04	228.29
850.36	228.22
850.67	228.26
850.98	228.25
851.30	228.27
851.61	228.26
851.92	228.27
852.23	228.31
852.55	228.32
852.86	228.32
853.17	228.34
853.49	228.38
853.80	228.43
854.11	228.44
854.42	228.46
854.74	228.43
855.05	228.42
855.36	228.33
855.67	228.33
855.99	228.32
856.30	228.53
856.61	228.52
856.92	228.52
857.23	228.52
857.55	228.50
857.86	228.48
858.17	228.50
858.48	228.48
858.79	228.43
859.11	228.44
859.42	228.43
859.73	228.41
860.04	228.39
860.35	228.33
860.66	228.27
860.98	228.26
861.29	228.29
861.60	228.28
861.91	228.32
862.22	228.30
862.53	228.27
862.84	228.08
863.16	228.12
863.47	228.08
863.78	228.06
864.09	228.07
864.40	228.08
864.71	228.08
865.02	228.10
865.33	228.08
865.64	228.04
865.95	228.04
866.27	228.13
866.58	228.12
866.89	228.16
867.20	228.16
867.51	228.12
867.82	228.11
868.13	228.17
868.44	228.13
868.75	228.17
869.06	228.17
869.37	228.19
869.68	228.14
869.99	228.19
870.30	228.20
870.61	228.22
870.92	228.20
871.23	228.19
871.54	228.21
871.85	228.24
872.16	228.27
872.47	228.25
872.78	228.17
873.09	228.18
873.40	228.16
873.71	228.17
874.02	228.19
874.33	228.17
874.64	228.13
874.95	228.15
875.26	228.11
875.56	228.11
875.87	228.08
876.18	228.08
876.49	228.25
876.80	228.23
877.11	228.19
877.42	228.20
877.73	228.20
878.04	228.16
878.35	228.16
878.66	228.15
878.96	228.15
879.27	228.13
879.58	228.13
879.89	228.10
880.20	228.15
880.51	228.14
880.82	228.14
881.12	228.14
881.43	228.10
881.74	228.10
882.05	228.08
882.36	228.10
882.67	228.12
882.97	227.91
883.28	227.90
883.59	227.89
883.90	227.90
884.21	227.92
884.51	227.92
884.82	227.89
885.13	227.89
885.44	227.90
885.74	227.91
886.05	227.90
886.36	227.92
886.67	227.86
886.98	227.94
887.28	227.96
887.59	227.95
887.90	227.96
888.20	227.94
888.51	227.98
888.82	227.94
889.13	227.95
889.43	228.11
889.74	228.10
890.05	228.10
890.35	228.08
890.66	228.06
890.97	228.04
891.28	228.02
891.58	228.03
891.89	228.02
892.20	227.99
892.50	227.97
892.81	227.95
893.12	227.95
893.42	227.87
893.73	227.87
894.04	227.87
894.34	227.88
894.65	227.88
894.95	227.85
895.26	227.88
895.57	227.95
895.87	227.76
896.18	227.80
896.48	227.82
896.79	227.81
897.10	227.84
897.40	227.84
897.71	227.86
898.01	227.84
898.32	227.86
898.63	227.86
898.93	227.87
899.24	227.86
899.54	227.86
899.85	227.86
900.15	227.86
900.46	227.86
900.76	227.87
901.07	227.87
901.38	227.86
901.68	227.87
901.99	227.78
902.29	227.79
902.60	227.78
902.90	227.76
903.21	227.75
903.51	227.73
903.82	227.78
904.12	227.78
904.43	227.79
904.73	227.77
905.03	227.78
905.34	227.95
905.64	227.95
905.95	227.94
906.25	227.93
906.56	227.92
906.86	227.92
907.17	227.91
907.47	227.92
907.77	227.90
908.08	227.85
908.38	227.87
908.69	227.89
908.99	227.92
909.30	227.93
909.60	227.93
909.90	227.94
910.21	227.90
910.51	227.87
910.81	227.88
911.12	227.90
911.42	227.90
911.73	227.73
912.03	227.74
912.33	227.79
912.64	227.76
912.94	227.74
913.24	227.71
913.55	227.70
913.85	227.69
914.15	227.74
914.46	227.76
914.76	227.74
915.06	227.73
915.37	227.71
915.67	227.68
915.97	227.69
916.27	227.66
916.58	227.66
916.88	227.66
917.18	227.64
917.49	227.76
917.79	227.76
918.09	227.77
918.39	227.82
918.70	227.82
919.00	227.84
919.30	227.93
919.60	227.94
919.91	227.91
920.21	227.92
920.51	227.89
920.81	227.88
921.12	227.91
921.42	227.90
921.72	227.89
922.02	227.92
922.32	227.94
922.63	227.94
922.93	228.04
923.23	228.05
923.53	228.03
923.83	227.91
924.13	227.93
924.44	227.92
924.74	227.93
925.04	227.96
925.34	227.96
925.64	227.88
925.94	227.87
926.24	227.97
926.55	227.95
926.85	227.96
927.15	227.96
927.45	227.96
927.75	227.96
928.05	227.95
928.35	227.93
928.65	227.96
928.95	227.97
929.26	227.88
929.56	227.91
929.86	227.94
930.16	227.92
930.46	227.90
930.76	227.91
931.06	227.83
931.36	227.78
931.66	227.81
931.96	227.83
932.26	227.84
932.56	227.76
932.86	227.78
933.16	227.77
933.46	227.76
933.76	227.73
934.06	227.75
934.36	227.81
934.66	227.81
934.96	227.77
935.26	227.79
935.56	227.81
935.86	227.75
936.16	227.72
936.46	227.71
936.76	227.70
937.06	227.67
937.36	227.69
937.66	227.69
937.96	227.68
938.26	227.65
938.56	227.63
938.86	227.64
939.16	227.68
939.46	227.70
939.76	227.71
940.06	227.72
940.35	227.70
940.65	227.60
940.95	227.62
941.25	227.60
941.55	227.56
941.85	227.55
942.15	227.60
942.45	227.64
942.75	227.64
943.04	227.65
943.34	227.68
943.64	227.67
943.94	227.64
944.24	227.63
944.54	227.63
944.84	227.62
945.13	227.60
945.43	227.57
945.73	227.56
946.03	227.54
946.33	227.51
946.62	227.50
946.92	227.50
947.22	227.51
947.52	227.53
947.82	227.56
948.11	227.54
948.41	227.49
948.71	227.45
949.01	227.46
949.31	227.44
949.60	227.43
949.90	227.45
950.20	227.44
950.50	227.45
950.79	227.44
951.09	227.47
951.39	227.46
951.69	227.45
951.98	227.48
952.28	227.48
952.58	227.48
952.87	227.47
953.17	227.50
953.47	227.46
953.76	227.45
954.06	227.43
954.36	227.41
954.66	227.41
954.95	227.45
955.25	227.47
955.55	227.50
955.84	227.47
956.14	227.48
956.44	227.49
956.73	227.46
957.03	227.48
957.32	227.48
957.62	227.48
957.92	227.53
958.21	227.50
958.51	227.72
958.81	227.75
959.10	227.78
959.40	227.82
959.69	227.85
959.99	227.88
960.29	227.89
960.58	227.89
960.88	227.96
961.17	227.95
961.47	227.96
961.76	227.93
962.06	227.98
962.36	227.95
962.65	227.96
962.95	227.98
963.24	227.96
963.54	227.97
963.83	227.98
964.13	227.96
964.42	227.95
964.72	227.79
965.01	227.79
965.31	227.77
965.60	227.71
965.90	227.82
966.19	227.78
966.49	227.79
966.78	227.79
967.08	227.77
967.37	227.77
967.67	227.75
967.96	227.80
968.26	227.78
968.55	227.80
968.85	227.79
969.14	227.79
969.43	227.78
969.73	227.77
970.02	227.76
970.32	227.75
970.61	227.72
970.91	227.68
971.20	227.67
971.49	227.66
971.79	227.69
972.08	227.55
972.38	227.58
972.67	227.57
972.96	227.59
973.26	227.56
973.55	227.61
973.85	227.60
974.14	227.57
974.43	227.58
974.73	227.54
975.02	227.54
975.31	227.55
975.61	227.55
975.90	227.53
976.19	227.52
976.49	227.53
976.78	227.55
977.07	227.55
977.37	227.56
977.66	227.58
977.95	227.56
978.24	227.59
978.54	227.61
978.83	227.60
979.12	227.59
979.42	227.60
979.71	227.57
980.00	227.55
980.29	227.57
980.59	227.54
980.88	227.58
981.17	227.58
981.46	227.58
981.76	227.58
982.05	227.63
982.34	227.64
982.63	227.64
982.93	227.64
983.22	227.68
983.51	227.68
983.80	227.70
984.09	227.72
984.39	227.70
984.68	227.67
984.97	227.68
985.26	227.67
985.55	227.68
985.85	227.64
986.14	227.69
986.43	227.70
986.72	227.70
987.01	227.65
987.30	227.65
987.59	227.64
987.89	227.64
988.18	227.57
988.47	227.56
988.76	227.54
989.05	227.53
989.34	227.49
989.63	227.54
989.92	227.51
990.22	227.49
990.51	227.49
990.80	227.47
991.09	227.49
991.38	227.50
991.67	227.48
991.96	227.46
992.25	227.46
992.54	227.44
992.83	227.45
993.12	227.44
993.41	227.46
993.70	227.53
993.99	227.56
994.28	227.60
994.58	227.63
994.87	227.61
995.16	227.61
995.45	227.59
995.74	227.53
996.03	227.54
996.32	227.57
996.61	227.61
996.90	227.62
997.19	227.61
997.48	227.60
997.77	227.60
998.06	227.62
998.34	227.60
998.63	227.59
998.92	227.59
999.21	227.62
999.50	227.61
999.79	227.56
1000.08	227.56
1000.37	227.57
1000.66	227.54
1000.95	227.59
1001.24	227.60
1001.53	227.63
1001.82	227.64
1002.11	227.61
1002.40	227.61
1002.68	227.64
1002.97	227.77
1003.26	227.75
1003.55	227.72
1003.84	227.74
1004.13	227.80
1004.42	227.79
1004.71	227.79
1004.99	227.77
1005.28	227.82
1005.57	227.81
1005.86	227.78
1006.15	227.76
1006.44	227.73
1006.72	227.76
1007.01	227.73
1007.30	227.72
1007.59	227.69
1007.88	227.68
1008.17	227.69
1008.45	227.66
1008.74	227.59
1009.03	227.49
1009.32	227.50
1009.60	227.51
1009.89	227.48
1010.18	227.41
1010.47	227.40
1010.76	227.40
1011.04	227.40
1011.33	227.38
1011.62	227.39
1011.91	227.41
1012.19	227.43
1012.48	227.43
1012.77	227.43
1013.05	227.48
1013.34	227.48
1013.63	227.48
1013.92	227.50
1014.20	227.48
1014.49	227.49
1014.78	227.51
1015.06	227.45
1015.35	227.45
1015.64	227.47
1015.92	227.51
1016.21	227.53
1016.50	227.53
1016.78	227.55
1017.07	227.57
1017.36	227.55
1017.64	227.53
1017.93	227.56
1018.22	227.53
1018.50	227.52
1018.79	227.51
1019.08	227.46
1019.36	227.46
1019.65	227.45
1019.93	227.49
1020.22	227.51
1020.51	227.60
1020.79	227.58
1021.08	227.27
1021.36	227.28
1021.65	227.18
1021.94	227.44
1022.22	227.59
1022.51	227.08
1022.79	228.21
1023.08	227.68
1023.36	229.50
1023.65	227.11
>>>>>End Processed Spectral Data<<<<<
