SpectraSuite Data File
++++++++++++++++++++++++++++++++++++
Date: Tue Oct 06 14:38:40 EDT 2015
User: lab3
Dark Spectrum Present: No
Reference Spectrum Present: No
Number of Sampled Component Spectra: 1
Spectrometers: USB2E7196
Integration Time (usec): 66000 (USB2E7196)
Spectra Averaged: 1000 (USB2E7196)
Boxcar Smoothing: 10 (USB2E7196)
Correct for Electrical Dark: No (USB2E7196)
Strobe/Lamp Enabled: No (USB2E7196)
Correct for Detector Non-linearity: No (USB2E7196)
Correct for Stray Light: No (USB2E7196)
Number of Pixels in Processed Spectrum: 2048
>>>>>Begin Processed Spectral Data<<<<<
339.09	0.00
339.48	214.84
339.86	216.15
340.24	217.60
340.63	219.04
341.01	223.27
341.39	221.64
341.78	223.30
342.16	224.52
342.54	224.82
342.93	213.30
343.31	224.07
343.69	224.61
344.07	225.09
344.46	225.54
344.84	225.94
345.22	226.14
345.60	226.42
345.99	226.62
346.37	226.76
346.75	226.88
347.13	226.96
347.52	227.07
347.90	227.20
348.28	227.25
348.66	227.33
349.05	227.32
349.43	227.40
349.81	227.48
350.19	227.55
350.57	227.62
350.96	227.72
351.34	227.84
351.72	227.95
352.10	228.06
352.48	228.13
352.87	228.18
353.25	228.25
353.63	228.30
354.01	228.37
354.39	228.46
354.77	228.54
355.15	228.66
355.54	228.70
355.92	228.71
356.30	228.79
356.68	228.98
357.06	229.06
357.44	229.10
357.82	229.16
358.20	229.38
358.58	229.45
358.97	229.51
359.35	229.60
359.73	229.70
360.11	229.76
360.49	229.81
360.87	229.86
361.25	229.93
361.63	230.05
362.01	230.11
362.39	230.13
362.77	230.17
363.15	230.20
363.53	230.23
363.91	230.28
364.29	230.30
364.67	230.15
365.05	230.18
365.43	230.22
365.81	230.26
366.19	230.20
366.57	230.28
366.95	230.28
367.33	230.24
367.71	230.23
368.09	230.26
368.47	230.27
368.85	230.26
369.23	230.28
369.61	230.20
369.99	230.23
370.37	230.24
370.75	230.36
371.13	230.30
371.51	230.26
371.89	230.23
372.27	230.22
372.65	230.19
373.03	230.15
373.41	230.10
373.78	230.04
374.16	229.93
374.54	229.83
374.92	229.76
375.30	229.73
375.68	229.65
376.06	229.61
376.44	229.54
376.82	229.50
377.19	229.45
377.57	229.41
377.95	229.30
378.33	229.24
378.71	229.03
379.09	229.00
379.47	228.98
379.84	228.92
380.22	228.84
380.60	228.78
380.98	228.72
381.36	228.67
381.73	228.60
382.11	228.58
382.49	228.54
382.87	228.48
383.25	228.44
383.62	228.60
384.00	228.51
384.38	228.48
384.76	228.48
385.13	228.49
385.51	228.46
385.89	228.41
386.27	228.38
386.64	228.38
387.02	228.32
387.40	228.27
387.78	228.25
388.15	228.24
388.53	228.21
388.91	228.19
389.29	228.17
389.66	228.18
390.04	228.14
390.42	228.15
390.79	228.15
391.17	228.14
391.55	227.93
391.92	227.94
392.30	227.95
392.68	227.90
393.05	227.89
393.43	227.91
393.81	227.92
394.18	227.91
394.56	227.91
394.94	227.96
395.31	227.98
395.69	228.05
396.06	228.10
396.44	228.14
396.82	228.15
397.19	228.28
397.57	228.31
397.95	228.39
398.32	228.39
398.70	228.46
399.07	228.55
399.45	228.62
399.82	228.69
400.20	228.74
400.58	228.83
400.95	228.85
401.33	228.97
401.70	229.21
402.08	229.36
402.45	229.49
402.83	229.66
403.20	229.84
403.58	229.97
403.95	230.18
404.33	230.40
404.71	230.63
405.08	230.93
405.46	231.17
405.83	231.45
406.21	231.75
406.58	232.08
406.96	232.40
407.33	232.77
407.70	233.19
408.08	233.77
408.45	234.28
408.83	234.83
409.20	235.33
409.58	235.78
409.95	236.41
410.33	237.09
410.70	237.72
411.08	238.47
411.45	239.28
411.82	240.11
412.20	241.04
412.57	242.15
412.95	243.04
413.32	244.20
413.69	245.37
414.07	246.62
414.44	247.98
414.82	249.39
415.19	251.03
415.56	252.70
415.94	254.44
416.31	256.40
416.68	258.35
417.06	260.60
417.43	262.72
417.81	265.17
418.18	267.65
418.55	270.37
418.93	273.20
419.30	276.16
419.67	279.29
420.04	282.53
420.42	285.90
420.79	289.79
421.16	293.71
421.54	297.69
421.91	301.83
422.28	306.15
422.66	310.81
423.03	315.24
423.40	319.87
423.77	324.83
424.15	329.88
424.52	335.14
424.89	340.84
425.26	346.48
425.64	351.70
426.01	357.57
426.38	363.60
426.75	369.79
427.13	376.10
427.50	382.69
427.87	389.51
428.24	396.37
428.61	402.93
428.99	410.00
429.36	417.82
429.73	425.33
430.10	432.76
430.47	440.33
430.85	448.22
431.22	456.60
431.59	465.19
431.96	473.55
432.33	482.88
432.70	491.77
433.08	502.34
433.45	512.31
433.82	522.08
434.19	532.99
434.56	543.71
434.93	554.13
435.30	564.50
435.68	576.26
436.05	587.78
436.42	599.31
436.79	609.86
437.16	621.20
437.53	633.40
437.90	645.67
438.27	657.64
438.64	670.49
439.01	682.23
439.38	693.09
439.75	703.55
440.13	715.45
440.50	726.79
440.87	735.78
441.24	745.67
441.61	756.55
441.98	764.58
442.35	774.09
442.72	783.82
443.09	793.16
443.46	799.33
443.83	803.95
444.20	807.75
444.57	813.30
444.94	816.78
445.31	820.22
445.68	823.16
446.05	825.41
446.42	825.25
446.79	824.90
447.16	824.59
447.53	824.46
447.90	821.16
448.27	817.89
448.64	812.72
449.01	809.31
449.37	801.99
449.74	795.41
450.11	786.84
450.48	777.32
450.85	767.71
451.22	759.38
451.59	751.29
451.96	744.11
452.33	733.53
452.70	724.02
453.07	712.50
453.43	701.03
453.80	689.87
454.17	679.19
454.54	669.19
454.91	657.86
455.28	647.12
455.65	636.94
456.02	626.27
456.38	617.69
456.75	606.56
457.12	597.56
457.49	588.48
457.86	579.95
458.23	572.47
458.59	564.15
458.96	555.64
459.33	548.16
459.70	540.50
460.07	534.58
460.43	527.64
460.80	521.16
461.17	515.46
461.54	509.37
461.91	503.68
462.27	497.91
462.64	493.19
463.01	487.75
463.38	482.39
463.74	477.53
464.11	473.23
464.48	469.34
464.85	465.15
465.21	461.89
465.58	458.29
465.95	454.19
466.32	450.92
466.68	447.69
467.05	444.43
467.42	441.27
467.78	437.91
468.15	434.82
468.52	432.53
468.88	429.53
469.25	426.81
469.62	424.61
469.98	422.19
470.35	420.05
470.72	418.16
471.08	416.18
471.45	414.53
471.82	412.67
472.18	410.74
472.55	409.49
472.92	407.96
473.28	406.71
473.65	405.38
474.02	404.16
474.38	403.14
474.75	402.52
475.11	401.62
475.48	401.18
475.85	400.74
476.21	400.51
476.58	400.33
476.94	400.50
477.31	400.53
477.67	400.66
478.04	400.94
478.41	401.33
478.77	401.94
479.14	402.26
479.50	403.00
479.87	403.95
480.23	404.92
480.60	405.85
480.96	406.80
481.33	408.23
481.69	409.61
482.06	410.98
482.42	412.25
482.79	413.83
483.15	415.67
483.52	417.77
483.88	419.77
484.25	421.92
484.61	424.15
484.98	426.53
485.34	429.23
485.71	432.04
486.07	435.03
486.44	437.94
486.80	441.27
487.17	444.66
487.53	448.37
487.90	452.20
488.26	456.45
488.62	460.87
488.99	465.31
489.35	470.03
489.72	475.12
490.08	480.44
490.44	485.88
490.81	491.46
491.17	497.17
491.54	503.29
491.90	509.56
492.26	516.22
492.63	523.24
492.99	530.49
493.36	538.05
493.72	546.00
494.08	554.08
494.45	562.58
494.81	571.47
495.17	580.56
495.54	590.19
495.90	600.19
496.26	610.46
496.63	620.97
496.99	631.84
497.35	643.11
497.72	654.76
498.08	666.85
498.44	679.23
498.80	692.37
499.17	705.85
499.53	719.78
499.89	734.05
500.26	748.41
500.62	763.06
500.98	778.40
501.34	793.95
501.71	810.24
502.07	826.75
502.43	843.74
502.79	860.90
503.16	878.44
503.52	896.28
503.88	914.54
504.24	933.32
504.60	952.28
504.97	971.70
505.33	991.58
505.69	1012.41
506.05	1033.34
506.41	1054.12
506.78	1075.17
507.14	1097.05
507.50	1119.45
507.86	1142.29
508.22	1165.26
508.59	1188.05
508.95	1211.61
509.31	1235.58
509.67	1260.27
510.03	1284.89
510.39	1309.84
510.75	1334.89
511.12	1359.96
511.48	1385.06
511.84	1410.16
512.20	1435.67
512.56	1461.78
512.92	1487.59
513.28	1513.09
513.64	1538.96
514.00	1564.98
514.37	1591.23
514.73	1617.08
515.09	1642.45
515.45	1668.13
515.81	1693.84
516.17	1719.66
516.53	1744.78
516.89	1769.81
517.25	1794.94
517.61	1819.80
517.97	1844.86
518.33	1869.58
518.69	1894.20
519.05	1918.96
519.41	1943.66
519.77	1968.28
520.13	1992.48
520.49	2016.67
520.85	2040.82
521.21	2064.75
521.57	2088.97
521.93	2111.97
522.29	2135.63
522.65	2158.75
523.01	2181.57
523.37	2203.70
523.73	2226.16
524.09	2248.81
524.45	2271.55
524.81	2293.47
525.17	2315.12
525.53	2336.08
525.89	2357.28
526.25	2378.15
526.61	2397.89
526.97	2417.71
527.33	2437.27
527.68	2455.97
528.04	2474.01
528.40	2491.06
528.76	2508.65
529.12	2524.96
529.48	2541.77
529.84	2557.20
530.20	2573.81
530.56	2589.42
530.91	2604.91
531.27	2619.34
531.63	2632.71
531.99	2645.81
532.35	2657.35
532.71	2668.94
533.07	2680.91
533.42	2691.25
533.78	2702.19
534.14	2713.63
534.50	2723.73
534.86	2733.85
535.21	2742.02
535.57	2750.18
535.93	2758.75
536.29	2766.07
536.65	2773.77
537.00	2779.34
537.36	2785.14
537.72	2789.17
538.08	2792.88
538.44	2795.59
538.79	2798.74
539.15	2801.41
539.51	2803.41
539.87	2806.13
540.22	2806.86
540.58	2807.81
540.94	2808.49
541.29	2807.73
541.65	2805.41
542.01	2803.14
542.37	2799.79
542.72	2798.10
543.08	2795.23
543.44	2792.26
543.79	2787.55
544.15	2782.61
544.51	2778.62
544.87	2772.67
545.22	2766.19
545.58	2759.76
545.94	2754.10
546.29	2746.97
546.65	2738.98
547.01	2731.14
547.36	2722.90
547.72	2714.57
548.07	2705.12
548.43	2695.40
548.79	2684.66
549.14	2674.87
549.50	2664.98
549.86	2654.44
550.21	2642.03
550.57	2630.95
550.92	2617.98
551.28	2605.57
551.64	2593.47
551.99	2581.48
552.35	2569.64
552.70	2557.58
553.06	2545.95
553.41	2533.33
553.77	2520.03
554.13	2507.07
554.48	2493.37
554.84	2478.98
555.19	2465.49
555.55	2451.34
555.90	2437.46
556.26	2424.45
556.61	2410.68
556.97	2395.86
557.32	2381.42
557.68	2367.38
558.03	2352.56
558.39	2338.69
558.74	2325.24
559.10	2309.57
559.45	2294.20
559.81	2279.69
560.16	2264.73
560.52	2249.48
560.87	2234.90
561.23	2220.01
561.58	2205.52
561.94	2190.24
562.29	2175.09
562.64	2160.06
563.00	2145.03
563.35	2130.48
563.71	2115.88
564.06	2100.70
564.42	2086.11
564.77	2071.61
565.12	2057.43
565.48	2043.36
565.83	2028.78
566.19	2014.27
566.54	2000.37
566.89	1985.36
567.25	1969.74
567.60	1955.33
567.96	1940.41
568.31	1924.98
568.66	1910.24
569.02	1895.52
569.37	1880.88
569.72	1866.71
570.08	1852.21
570.43	1837.71
570.78	1822.48
571.14	1807.14
571.49	1792.27
571.84	1778.19
572.20	1762.87
572.55	1747.73
572.90	1732.02
573.26	1716.44
573.61	1700.54
573.96	1685.20
574.31	1670.54
574.67	1656.37
575.02	1641.48
575.37	1626.22
575.72	1610.82
576.08	1595.78
576.43	1580.81
576.78	1565.95
577.13	1551.16
577.49	1536.42
577.84	1521.61
578.19	1506.95
578.54	1492.36
578.90	1477.66
579.25	1462.41
579.60	1448.37
579.95	1434.21
580.30	1420.27
580.66	1406.37
581.01	1392.68
581.36	1378.84
581.71	1364.92
582.06	1351.03
582.42	1337.31
582.77	1323.92
583.12	1310.96
583.47	1297.83
583.82	1284.77
584.17	1271.80
584.53	1258.70
584.88	1246.04
585.23	1233.28
585.58	1220.77
585.93	1208.29
586.28	1196.42
586.63	1184.41
586.98	1172.22
587.34	1160.45
587.69	1148.38
588.04	1136.70
588.39	1125.11
588.74	1113.48
589.09	1102.22
589.44	1090.49
589.79	1079.28
590.14	1068.25
590.49	1057.17
590.84	1046.48
591.19	1035.88
591.54	1025.20
591.89	1014.39
592.25	1003.63
592.60	992.79
592.95	982.20
593.30	971.67
593.65	961.06
594.00	950.77
594.35	941.13
594.70	931.00
595.05	921.63
595.40	912.06
595.75	902.33
596.10	893.07
596.45	883.65
596.80	874.65
597.15	865.57
597.50	856.61
597.85	848.00
598.19	839.29
598.54	830.60
598.89	822.09
599.24	813.98
599.59	805.89
599.94	798.31
600.29	790.57
600.64	782.90
600.99	775.24
601.34	767.81
601.69	759.78
602.04	752.36
602.39	745.01
602.74	737.91
603.08	730.93
603.43	723.97
603.78	717.14
604.13	710.41
604.48	703.72
604.83	697.25
605.18	690.77
605.53	684.49
605.87	678.05
606.22	671.89
606.57	665.70
606.92	659.41
607.27	653.27
607.62	647.45
607.96	641.75
608.31	636.29
608.66	630.69
609.01	625.31
609.36	620.16
609.70	614.92
610.05	609.63
610.40	604.47
610.75	599.21
611.10	594.28
611.44	589.33
611.79	584.49
612.14	579.62
612.49	574.71
612.83	569.98
613.18	565.54
613.53	561.07
613.88	556.63
614.22	552.45
614.57	548.13
614.92	543.84
615.27	539.62
615.61	535.43
615.96	531.41
616.31	527.46
616.65	523.47
617.00	519.55
617.35	515.76
617.70	512.04
618.04	508.50
618.39	504.88
618.74	501.42
619.08	497.87
619.43	494.42
619.78	491.08
620.12	487.76
620.47	484.55
620.82	481.40
621.16	478.32
621.51	475.35
621.85	472.45
622.20	469.59
622.55	466.77
622.89	464.00
623.24	461.32
623.59	458.67
623.93	456.08
624.28	453.62
624.62	451.33
624.97	449.02
625.32	446.57
625.66	444.14
626.01	441.72
626.35	439.50
626.70	437.22
627.04	435.06
627.39	432.86
627.73	430.69
628.08	428.62
628.43	426.61
628.77	424.55
629.12	422.63
629.46	420.69
629.81	418.85
630.15	416.94
630.50	415.05
630.84	413.26
631.19	411.52
631.53	409.81
631.88	407.94
632.22	406.16
632.57	404.71
632.91	403.24
633.26	401.85
633.60	400.39
633.95	399.01
634.29	397.55
634.64	396.15
634.98	394.63
635.32	393.23
635.67	391.90
636.01	390.60
636.36	389.30
636.70	388.16
637.05	386.87
637.39	385.70
637.73	384.55
638.08	383.41
638.42	382.30
638.77	381.05
639.11	379.79
639.45	378.62
639.80	377.38
640.14	376.22
640.49	374.99
640.83	373.82
641.17	372.69
641.52	371.58
641.86	370.50
642.20	369.60
642.55	368.53
642.89	367.50
643.23	366.45
643.58	365.55
643.92	364.47
644.26	363.46
644.61	362.52
644.95	361.57
645.29	360.58
645.64	359.57
645.98	358.64
646.32	357.79
646.66	356.87
647.01	355.94
647.35	355.07
647.69	354.20
648.04	353.38
648.38	352.48
648.72	351.68
649.06	350.90
649.41	350.07
649.75	349.27
650.09	348.52
650.43	347.76
650.78	346.93
651.12	346.17
651.46	345.42
651.80	344.70
652.14	343.95
652.49	343.24
652.83	342.50
653.17	341.79
653.51	341.10
653.85	340.49
654.20	339.85
654.54	339.14
654.88	338.49
655.22	337.86
655.56	337.17
655.90	336.48
656.25	335.79
656.59	335.13
656.93	334.51
657.27	333.94
657.61	333.27
657.95	332.68
658.29	332.08
658.64	331.55
658.98	330.92
659.32	330.31
659.66	329.72
660.00	329.17
660.34	328.59
660.68	328.00
661.02	327.36
661.36	326.73
661.70	326.13
662.05	325.56
662.39	325.01
662.73	324.55
663.07	324.11
663.41	323.60
663.75	323.04
664.09	322.50
664.43	321.87
664.77	321.36
665.11	320.75
665.45	320.20
665.79	319.63
666.13	319.08
666.47	318.54
666.81	317.97
667.15	317.36
667.49	316.87
667.83	316.43
668.17	315.97
668.51	315.53
668.85	315.12
669.19	314.75
669.53	314.24
669.87	313.74
670.21	313.24
670.55	312.77
670.89	312.42
671.23	311.98
671.57	311.57
671.91	311.18
672.25	310.81
672.58	310.45
672.92	310.00
673.26	309.60
673.60	309.20
673.94	308.81
674.28	308.46
674.62	308.09
674.96	307.64
675.30	307.24
675.64	306.83
675.97	306.37
676.31	305.87
676.65	305.43
676.99	305.07
677.33	304.60
677.67	304.17
678.01	303.63
678.34	303.19
678.68	302.78
679.02	302.30
679.36	301.86
679.70	301.39
680.04	300.96
680.37	300.53
680.71	300.10
681.05	299.70
681.39	299.27
681.73	298.78
682.06	298.33
682.40	297.88
682.74	297.50
683.08	297.14
683.42	296.69
683.75	296.29
684.09	295.76
684.43	295.31
684.77	294.85
685.10	294.45
685.44	294.05
685.78	293.62
686.12	293.22
686.45	292.77
686.79	292.30
687.13	291.88
687.46	291.42
687.80	291.00
688.14	290.51
688.48	290.08
688.81	289.65
689.15	289.29
689.49	288.83
689.82	288.34
690.16	287.82
690.50	287.41
690.83	286.97
691.17	286.52
691.51	286.09
691.84	285.73
692.18	285.30
692.52	284.85
692.85	284.41
693.19	284.05
693.52	283.65
693.86	283.26
694.20	282.85
694.53	282.44
694.87	281.99
695.21	281.56
695.54	281.15
695.88	280.70
696.21	280.21
696.55	279.79
696.88	279.37
697.22	278.94
697.56	278.54
697.89	278.07
698.23	277.66
698.56	277.21
698.90	276.79
699.23	276.33
699.57	275.93
699.90	275.49
700.24	275.01
700.58	274.59
700.91	274.22
701.25	273.96
701.58	273.65
701.92	273.32
702.25	272.97
702.59	272.56
702.92	272.19
703.26	271.80
703.59	271.42
703.93	271.17
704.26	270.83
704.60	270.44
704.93	270.06
705.26	269.66
705.60	269.34
705.93	268.91
706.27	268.60
706.60	268.26
706.94	267.96
707.27	267.57
707.61	267.20
707.94	266.81
708.27	266.28
708.61	265.83
708.94	265.44
709.28	265.06
709.61	264.68
709.94	264.35
710.28	264.03
710.61	263.73
710.95	263.25
711.28	263.02
711.61	262.69
711.95	262.41
712.28	262.08
712.61	261.73
712.95	261.50
713.28	261.25
713.61	260.88
713.95	260.51
714.28	260.21
714.61	259.88
714.95	259.56
715.28	259.24
715.61	258.95
715.95	258.66
716.28	258.35
716.61	258.08
716.95	257.75
717.28	257.44
717.61	257.12
717.94	256.83
718.28	256.41
718.61	256.11
718.94	255.79
719.27	255.52
719.61	255.27
719.94	254.97
720.27	254.61
720.60	254.35
720.94	254.09
721.27	253.84
721.60	253.61
721.93	253.36
722.27	253.17
722.60	252.95
722.93	252.67
723.26	252.44
723.59	252.17
723.93	251.97
724.26	251.75
724.59	251.50
724.92	251.28
725.25	251.11
725.59	250.90
725.92	250.70
726.25	250.49
726.58	250.27
726.91	250.03
727.24	249.83
727.57	249.61
727.91	249.35
728.24	249.17
728.57	248.95
728.90	248.78
729.23	248.51
729.56	248.38
729.89	248.19
730.22	247.97
730.55	247.78
730.89	247.57
731.22	247.34
731.55	247.13
731.88	246.95
732.21	246.72
732.54	246.50
732.87	246.31
733.20	246.12
733.53	245.94
733.86	245.77
734.19	245.56
734.52	245.40
734.85	245.37
735.18	245.16
735.51	245.03
735.84	244.85
736.17	244.74
736.50	244.46
736.83	244.49
737.16	244.33
737.49	244.17
737.82	244.00
738.15	243.88
738.48	243.72
738.81	243.53
739.14	243.35
739.47	243.19
739.80	243.03
740.13	242.89
740.46	242.71
740.79	242.54
741.12	242.39
741.45	242.21
741.78	241.95
742.11	241.85
742.44	241.65
742.77	241.53
743.10	241.35
743.43	241.20
743.75	240.88
744.08	241.01
744.41	240.86
744.74	240.72
745.07	240.54
745.40	240.45
745.73	240.40
746.06	240.28
746.39	240.17
746.71	240.03
747.04	239.89
747.37	239.76
747.70	239.66
748.03	239.54
748.36	239.45
748.68	239.33
749.01	239.16
749.34	239.05
749.67	238.92
750.00	238.83
750.33	238.84
750.65	238.74
750.98	238.36
751.31	238.26
751.64	238.15
751.97	238.13
752.29	238.00
752.62	237.80
752.95	237.68
753.28	237.54
753.60	237.42
753.93	237.35
754.26	237.25
754.59	237.09
754.91	236.97
755.24	236.84
755.57	236.73
755.90	236.63
756.22	236.50
756.55	236.37
756.88	236.23
757.20	236.00
757.53	235.85
757.86	235.75
758.19	235.67
758.51	235.57
758.84	235.39
759.17	235.28
759.49	235.19
759.82	235.19
760.15	235.11
760.47	235.02
760.80	234.88
761.13	234.82
761.45	234.72
761.78	234.63
762.11	234.54
762.43	234.44
762.76	234.35
763.08	234.30
763.41	234.22
763.74	234.15
764.06	234.07
764.39	234.00
764.71	233.90
765.04	233.81
765.37	233.71
765.69	233.63
766.02	233.57
766.34	233.48
766.67	233.33
767.00	233.30
767.32	233.33
767.65	233.37
767.97	233.28
768.30	233.24
768.62	233.18
768.95	233.10
769.27	233.04
769.60	233.01
769.92	232.90
770.25	232.81
770.57	232.72
770.90	232.68
771.22	232.61
771.55	232.57
771.87	232.52
772.20	232.46
772.52	232.56
772.85	232.72
773.17	232.67
773.50	232.62
773.82	232.52
774.15	232.38
774.47	232.21
774.80	232.15
775.12	232.09
775.45	232.05
775.77	232.01
776.09	231.97
776.42	231.93
776.74	231.95
777.07	231.90
777.39	231.88
777.72	231.81
778.04	231.78
778.36	231.72
778.69	231.68
779.01	231.66
779.33	231.46
779.66	231.21
779.98	231.16
780.31	231.14
780.63	231.17
780.95	231.16
781.28	231.13
781.60	231.08
781.92	231.05
782.25	231.01
782.57	230.97
782.89	230.92
783.22	230.86
783.54	230.80
783.86	230.78
784.19	230.73
784.51	230.75
784.83	230.69
785.16	230.67
785.48	230.65
785.80	230.62
786.12	230.61
786.45	230.57
786.77	230.55
787.09	230.50
787.42	230.42
787.74	230.40
788.06	230.37
788.38	230.35
788.71	230.30
789.03	230.28
789.35	230.28
789.67	230.24
789.99	230.23
790.32	230.18
790.64	230.17
790.96	230.32
791.28	230.23
791.61	230.20
791.93	230.18
792.25	230.13
792.57	230.22
792.89	230.17
793.21	230.15
793.54	230.10
793.86	230.08
794.18	230.04
794.50	229.98
794.82	229.96
795.14	229.95
795.47	229.96
795.79	229.94
796.11	229.88
796.43	229.85
796.75	229.81
797.07	229.81
797.39	229.78
797.71	229.61
798.04	229.61
798.36	229.61
798.68	229.59
799.00	229.59
799.32	229.49
799.64	229.49
799.96	229.48
800.28	229.50
800.60	229.47
800.92	229.47
801.24	229.44
801.56	229.45
801.89	229.43
802.21	229.41
802.53	229.35
802.85	229.37
803.17	229.45
803.49	229.40
803.81	229.36
804.13	229.33
804.45	229.28
804.77	229.28
805.09	229.25
805.41	229.22
805.73	229.17
806.05	229.11
806.37	229.08
806.69	229.05
807.01	229.02
807.33	229.02
807.65	228.94
807.97	229.01
808.28	228.96
808.60	228.95
808.92	228.90
809.24	229.00
809.56	228.96
809.88	228.87
810.20	228.88
810.52	228.92
810.84	228.88
811.16	228.86
811.48	228.83
811.80	228.88
812.12	228.87
812.43	228.89
812.75	228.89
813.07	228.86
813.39	228.86
813.71	228.82
814.03	228.80
814.35	228.80
814.67	228.71
814.98	228.69
815.30	228.67
815.62	228.63
815.94	228.50
816.26	228.50
816.58	228.46
816.89	228.46
817.21	228.39
817.53	228.39
817.85	228.39
818.17	228.36
818.48	228.28
818.80	228.29
819.12	228.25
819.44	228.21
819.76	228.18
820.07	228.17
820.39	228.16
820.71	228.17
821.03	228.16
821.34	228.14
821.66	228.16
821.98	228.17
822.30	228.16
822.61	228.27
822.93	228.23
823.25	228.24
823.57	228.21
823.88	228.23
824.20	228.22
824.52	228.25
824.83	228.24
825.15	228.22
825.47	228.19
825.79	228.20
826.10	228.18
826.42	228.18
826.74	228.17
827.05	228.15
827.37	228.15
827.69	228.13
828.00	228.13
828.32	228.12
828.64	228.09
828.95	228.17
829.27	228.12
829.58	228.11
829.90	228.13
830.22	228.12
830.53	228.07
830.85	228.05
831.17	227.99
831.48	227.99
831.80	228.00
832.11	227.98
832.43	227.95
832.75	227.94
833.06	228.04
833.38	227.98
833.69	227.97
834.01	227.96
834.32	227.96
834.64	227.94
834.96	227.93
835.27	227.93
835.59	227.85
835.90	227.81
836.22	227.79
836.53	227.74
836.85	227.71
837.16	227.90
837.48	227.89
837.79	227.95
838.11	227.95
838.42	227.93
838.74	227.94
839.05	227.91
839.37	227.91
839.68	227.78
840.00	227.78
840.31	227.79
840.63	227.77
840.94	227.75
841.26	227.73
841.57	227.70
841.88	227.71
842.20	227.68
842.51	227.66
842.83	227.65
843.14	227.81
843.46	227.82
843.77	227.69
844.08	227.68
844.40	227.61
844.71	227.58
845.03	227.56
845.34	227.54
845.65	227.54
845.97	227.53
846.28	227.54
846.60	227.55
846.91	227.52
847.22	227.51
847.54	227.54
847.85	227.53
848.16	227.53
848.48	227.49
848.79	227.57
849.10	227.58
849.42	227.58
849.73	227.42
850.04	227.42
850.36	227.35
850.67	227.38
850.98	227.38
851.30	227.39
851.61	227.39
851.92	227.38
852.23	227.43
852.55	227.44
852.86	227.45
853.17	227.47
853.49	227.50
853.80	227.53
854.11	227.54
854.42	227.56
854.74	227.54
855.05	227.55
855.36	227.44
855.67	227.45
855.99	227.44
856.30	227.65
856.61	227.64
856.92	227.65
857.23	227.64
857.55	227.63
857.86	227.61
858.17	227.64
858.48	227.62
858.79	227.57
859.11	227.59
859.42	227.58
859.73	227.56
860.04	227.54
860.35	227.47
860.66	227.43
860.98	227.42
861.29	227.44
861.60	227.43
861.91	227.49
862.22	227.45
862.53	227.42
862.84	227.20
863.16	227.23
863.47	227.21
863.78	227.18
864.09	227.20
864.40	227.21
864.71	227.21
865.02	227.23
865.33	227.21
865.64	227.17
865.95	227.17
866.27	227.27
866.58	227.26
866.89	227.29
867.20	227.27
867.51	227.25
867.82	227.24
868.13	227.29
868.44	227.24
868.75	227.29
869.06	227.30
869.37	227.33
869.68	227.29
869.99	227.32
870.30	227.34
870.61	227.37
870.92	227.34
871.23	227.32
871.54	227.35
871.85	227.40
872.16	227.42
872.47	227.40
872.78	227.29
873.09	227.31
873.40	227.29
873.71	227.32
874.02	227.32
874.33	227.30
874.64	227.26
874.95	227.29
875.26	227.24
875.56	227.24
875.87	227.21
876.18	227.20
876.49	227.36
876.80	227.34
877.11	227.30
877.42	227.31
877.73	227.31
878.04	227.28
878.35	227.26
878.66	227.26
878.96	227.27
879.27	227.27
879.58	227.27
879.89	227.26
880.20	227.29
880.51	227.28
880.82	227.29
881.12	227.29
881.43	227.25
881.74	227.23
882.05	227.22
882.36	227.23
882.67	227.24
882.97	227.04
883.28	227.03
883.59	227.04
883.90	227.05
884.21	227.07
884.51	227.05
884.82	227.02
885.13	227.02
885.44	227.01
885.74	227.02
886.05	227.00
886.36	227.00
886.67	226.95
886.98	227.04
887.28	227.05
887.59	227.04
887.90	227.06
888.20	227.06
888.51	227.10
888.82	227.09
889.13	227.10
889.43	227.27
889.74	227.25
890.05	227.24
890.35	227.23
890.66	227.20
890.97	227.19
891.28	227.19
891.58	227.19
891.89	227.19
892.20	227.17
892.50	227.15
892.81	227.15
893.12	227.14
893.42	227.05
893.73	227.06
894.04	227.06
894.34	227.07
894.65	227.06
894.95	227.03
895.26	227.04
895.57	227.11
895.87	226.92
896.18	226.97
896.48	226.98
896.79	226.97
897.10	227.00
897.40	227.01
897.71	227.03
898.01	227.01
898.32	227.03
898.63	227.04
898.93	227.05
899.24	227.06
899.54	227.06
899.85	227.05
900.15	227.04
900.46	227.04
900.76	227.04
901.07	227.04
901.38	227.04
901.68	227.06
901.99	226.97
902.29	226.98
902.60	226.95
902.90	226.94
903.21	226.93
903.51	226.91
903.82	226.94
904.12	226.93
904.43	226.95
904.73	226.94
905.03	226.95
905.34	227.11
905.64	227.11
905.95	227.11
906.25	227.10
906.56	227.09
906.86	227.09
907.17	227.08
907.47	227.11
907.77	227.10
908.08	227.07
908.38	227.09
908.69	227.10
908.99	227.14
909.30	227.16
909.60	227.16
909.90	227.16
910.21	227.10
910.51	227.08
910.81	227.08
911.12	227.09
911.42	227.09
911.73	226.90
912.03	226.91
912.33	226.94
912.64	226.93
912.94	226.92
913.24	226.89
913.55	226.87
913.85	226.85
914.15	226.90
914.46	226.91
914.76	226.89
915.06	226.88
915.37	226.84
915.67	226.83
915.97	226.84
916.27	226.80
916.58	226.83
916.88	226.84
917.18	226.82
917.49	226.93
917.79	226.93
918.09	226.96
918.39	226.99
918.70	226.98
919.00	226.99
919.30	227.08
919.60	227.08
919.91	227.06
920.21	227.07
920.51	227.02
920.81	227.01
921.12	227.04
921.42	227.04
921.72	227.06
922.02	227.08
922.32	227.10
922.63	227.11
922.93	227.21
923.23	227.22
923.53	227.21
923.83	227.10
924.13	227.11
924.44	227.11
924.74	227.14
925.04	227.19
925.34	227.19
925.64	227.11
925.94	227.11
926.24	227.21
926.55	227.19
926.85	227.23
927.15	227.23
927.45	227.22
927.75	227.23
928.05	227.22
928.35	227.20
928.65	227.23
928.95	227.24
929.26	227.15
929.56	227.18
929.86	227.20
930.16	227.19
930.46	227.17
930.76	227.18
931.06	227.09
931.36	227.05
931.66	227.08
931.96	227.10
932.26	227.11
932.56	227.04
932.86	227.06
933.16	227.05
933.46	227.04
933.76	227.01
934.06	227.03
934.36	227.10
934.66	227.08
934.96	227.04
935.26	227.05
935.56	227.07
935.86	227.02
936.16	227.00
936.46	226.97
936.76	226.97
937.06	226.94
937.36	226.96
937.66	226.95
937.96	226.93
938.26	226.90
938.56	226.88
938.86	226.89
939.16	226.91
939.46	226.93
939.76	226.94
940.06	226.94
940.35	226.91
940.65	226.81
940.95	226.83
941.25	226.80
941.55	226.78
941.85	226.76
942.15	226.80
942.45	226.84
942.75	226.84
943.04	226.84
943.34	226.88
943.64	226.85
943.94	226.82
944.24	226.83
944.54	226.83
944.84	226.84
945.13	226.80
945.43	226.77
945.73	226.76
946.03	226.74
946.33	226.73
946.62	226.71
946.92	226.70
947.22	226.71
947.52	226.72
947.82	226.74
948.11	226.72
948.41	226.66
948.71	226.61
949.01	226.62
949.31	226.62
949.60	226.60
949.90	226.64
950.20	226.63
950.50	226.63
950.79	226.61
951.09	226.63
951.39	226.64
951.69	226.62
951.98	226.64
952.28	226.65
952.58	226.64
952.87	226.65
953.17	226.68
953.47	226.66
953.76	226.67
954.06	226.64
954.36	226.62
954.66	226.64
954.95	226.69
955.25	226.70
955.55	226.71
955.84	226.68
956.14	226.69
956.44	226.70
956.73	226.66
957.03	226.68
957.32	226.68
957.62	226.66
957.92	226.71
958.21	226.69
958.51	226.89
958.81	226.93
959.10	226.94
959.40	226.98
959.69	226.99
959.99	227.01
960.29	227.02
960.58	227.03
960.88	227.09
961.17	227.06
961.47	227.09
961.76	227.08
962.06	227.11
962.36	227.08
962.65	227.09
962.95	227.12
963.24	227.09
963.54	227.10
963.83	227.12
964.13	227.11
964.42	227.09
964.72	226.94
965.01	226.94
965.31	226.92
965.60	226.87
965.90	226.99
966.19	226.96
966.49	226.96
966.78	226.95
967.08	226.93
967.37	226.93
967.67	226.88
967.96	226.90
968.26	226.90
968.55	226.92
968.85	226.91
969.14	226.90
969.43	226.91
969.73	226.89
970.02	226.89
970.32	226.86
970.61	226.85
970.91	226.81
971.20	226.78
971.49	226.75
971.79	226.78
972.08	226.64
972.38	226.66
972.67	226.64
972.96	226.67
973.26	226.64
973.55	226.70
973.85	226.69
974.14	226.67
974.43	226.69
974.73	226.65
975.02	226.65
975.31	226.65
975.61	226.64
975.90	226.63
976.19	226.61
976.49	226.64
976.78	226.65
977.07	226.66
977.37	226.68
977.66	226.71
977.95	226.69
978.24	226.71
978.54	226.74
978.83	226.73
979.12	226.71
979.42	226.71
979.71	226.68
980.00	226.68
980.29	226.68
980.59	226.65
980.88	226.71
981.17	226.70
981.46	226.70
981.76	226.71
982.05	226.76
982.34	226.78
982.63	226.78
982.93	226.78
983.22	226.81
983.51	226.82
983.80	226.84
984.09	226.87
984.39	226.86
984.68	226.84
984.97	226.86
985.26	226.84
985.55	226.86
985.85	226.83
986.14	226.86
986.43	226.88
986.72	226.88
987.01	226.81
987.30	226.81
987.59	226.80
987.89	226.80
988.18	226.76
988.47	226.73
988.76	226.71
989.05	226.69
989.34	226.65
989.63	226.69
989.92	226.65
990.22	226.63
990.51	226.61
990.80	226.59
991.09	226.59
991.38	226.62
991.67	226.60
991.96	226.58
992.25	226.58
992.54	226.56
992.83	226.55
993.12	226.56
993.41	226.59
993.70	226.66
993.99	226.70
994.28	226.70
994.58	226.74
994.87	226.72
995.16	226.73
995.45	226.71
995.74	226.64
996.03	226.68
996.32	226.70
996.61	226.73
996.90	226.73
997.19	226.72
997.48	226.72
997.77	226.70
998.06	226.73
998.34	226.70
998.63	226.70
998.92	226.71
999.21	226.73
999.50	226.73
999.79	226.66
1000.08	226.63
1000.37	226.64
1000.66	226.62
1000.95	226.66
1001.24	226.67
1001.53	226.69
1001.82	226.70
1002.11	226.65
1002.40	226.66
1002.68	226.70
1002.97	226.83
1003.26	226.80
1003.55	226.78
1003.84	226.80
1004.13	226.85
1004.42	226.86
1004.71	226.86
1004.99	226.85
1005.28	226.89
1005.57	226.89
1005.86	226.88
1006.15	226.87
1006.44	226.85
1006.72	226.86
1007.01	226.83
1007.30	226.84
1007.59	226.82
1007.88	226.82
1008.17	226.83
1008.45	226.80
1008.74	226.73
1009.03	226.65
1009.32	226.66
1009.60	226.66
1009.89	226.64
1010.18	226.57
1010.47	226.56
1010.76	226.55
1011.04	226.56
1011.33	226.53
1011.62	226.53
1011.91	226.55
1012.19	226.56
1012.48	226.58
1012.77	226.59
1013.05	226.65
1013.34	226.65
1013.63	226.66
1013.92	226.67
1014.20	226.65
1014.49	226.65
1014.78	226.68
1015.06	226.62
1015.35	226.62
1015.64	226.66
1015.92	226.69
1016.21	226.69
1016.50	226.70
1016.78	226.71
1017.07	226.72
1017.36	226.69
1017.64	226.68
1017.93	226.69
1018.22	226.68
1018.50	226.67
1018.79	226.67
1019.08	226.60
1019.36	226.60
1019.65	226.59
1019.93	226.63
1020.22	226.67
1020.51	226.77
1020.79	226.74
1021.08	226.45
1021.36	226.40
1021.65	226.80
1021.94	226.58
1022.22	226.62
1022.51	226.39
1022.79	227.48
1023.08	227.03
1023.36	228.75
1023.65	226.20
>>>>>End Processed Spectral Data<<<<<
