SpectraSuite Data File
++++++++++++++++++++++++++++++++++++
Date: Tue Oct 06 16:41:01 EDT 2015
User: lab3
Dark Spectrum Present: No
Reference Spectrum Present: No
Number of Sampled Component Spectra: 1
Spectrometers: USB2E7196
Integration Time (usec): 66000 (USB2E7196)
Spectra Averaged: 1000 (USB2E7196)
Boxcar Smoothing: 10 (USB2E7196)
Correct for Electrical Dark: No (USB2E7196)
Strobe/Lamp Enabled: No (USB2E7196)
Correct for Detector Non-linearity: No (USB2E7196)
Correct for Stray Light: No (USB2E7196)
Number of Pixels in Processed Spectrum: 2048
>>>>>Begin Processed Spectral Data<<<<<
339.09	0.00
339.48	215.27
339.86	216.77
340.24	218.09
340.63	219.50
341.01	223.38
341.39	222.03
341.78	223.64
342.16	225.12
342.54	225.12
342.93	213.69
343.31	224.48
343.69	225.01
344.07	225.46
344.46	225.90
344.84	226.30
345.22	226.50
345.60	226.79
345.99	226.99
346.37	227.13
346.75	227.25
347.13	227.33
347.52	227.41
347.90	227.54
348.28	227.58
348.66	227.67
349.05	227.66
349.43	227.72
349.81	227.81
350.19	227.87
350.57	227.93
350.96	228.04
351.34	228.15
351.72	228.26
352.10	228.38
352.48	228.46
352.87	228.51
353.25	228.58
353.63	228.62
354.01	228.68
354.39	228.76
354.77	228.83
355.15	228.94
355.54	228.99
355.92	229.00
356.30	229.08
356.68	229.27
357.06	229.34
357.44	229.37
357.82	229.43
358.20	229.64
358.58	229.70
358.97	229.76
359.35	229.86
359.73	229.95
360.11	230.00
360.49	230.06
360.87	230.12
361.25	230.19
361.63	230.30
362.01	230.35
362.39	230.39
362.77	230.45
363.15	230.47
363.53	230.50
363.91	230.55
364.29	230.57
364.67	230.42
365.05	230.45
365.43	230.49
365.81	230.53
366.19	230.48
366.57	230.56
366.95	230.58
367.33	230.54
367.71	230.53
368.09	230.55
368.47	230.54
368.85	230.53
369.23	230.55
369.61	230.48
369.99	230.52
370.37	230.52
370.75	230.63
371.13	230.61
371.51	230.55
371.89	230.53
372.27	230.51
372.65	230.50
373.03	230.46
373.41	230.44
373.78	230.38
374.16	230.26
374.54	230.16
374.92	230.09
375.30	230.06
375.68	229.98
376.06	229.95
376.44	229.90
376.82	229.86
377.19	229.81
377.57	229.76
377.95	229.64
378.33	229.58
378.71	229.39
379.09	229.34
379.47	229.32
379.84	229.25
380.22	229.19
380.60	229.11
380.98	229.06
381.36	229.00
381.73	228.93
382.11	228.92
382.49	228.88
382.87	228.82
383.25	228.77
383.62	228.94
384.00	228.88
384.38	228.83
384.76	228.84
385.13	228.86
385.51	228.82
385.89	228.77
386.27	228.75
386.64	228.74
387.02	228.69
387.40	228.65
387.78	228.63
388.15	228.60
388.53	228.58
388.91	228.55
389.29	228.52
389.66	228.54
390.04	228.50
390.42	228.51
390.79	228.51
391.17	228.49
391.55	228.28
391.92	228.27
392.30	228.29
392.68	228.25
393.05	228.23
393.43	228.24
393.81	228.26
394.18	228.24
394.56	228.25
394.94	228.31
395.31	228.31
395.69	228.38
396.06	228.44
396.44	228.47
396.82	228.49
397.19	228.62
397.57	228.64
397.95	228.71
398.32	228.70
398.70	228.77
399.07	228.88
399.45	228.93
399.82	228.99
400.20	229.04
400.58	229.12
400.95	229.14
401.33	229.28
401.70	229.50
402.08	229.65
402.45	229.78
402.83	229.94
403.20	230.11
403.58	230.24
403.95	230.45
404.33	230.67
404.71	230.90
405.08	231.21
405.46	231.47
405.83	231.73
406.21	232.02
406.58	232.34
406.96	232.67
407.33	233.05
407.70	233.48
408.08	234.06
408.45	234.58
408.83	235.14
409.20	235.63
409.58	236.09
409.95	236.71
410.33	237.39
410.70	238.04
411.08	238.79
411.45	239.61
411.82	240.43
412.20	241.37
412.57	242.46
412.95	243.34
413.32	244.48
413.69	245.66
414.07	246.94
414.44	248.31
414.82	249.70
415.19	251.34
415.56	253.01
415.94	254.75
416.31	256.69
416.68	258.64
417.06	260.90
417.43	263.02
417.81	265.47
418.18	267.96
418.55	270.68
418.93	273.52
419.30	276.48
419.67	279.62
420.04	282.84
420.42	286.21
420.79	290.12
421.16	294.04
421.54	298.03
421.91	302.19
422.28	306.53
422.66	311.19
423.03	315.64
423.40	320.27
423.77	325.24
424.15	330.35
424.52	335.63
424.89	341.35
425.26	347.01
425.64	352.25
426.01	358.18
426.38	364.21
426.75	370.43
427.13	376.77
427.50	383.42
427.87	390.32
428.24	397.27
428.61	403.93
428.99	411.12
429.36	419.02
429.73	426.55
430.10	434.06
430.47	441.71
430.85	449.66
431.22	458.13
431.59	466.80
431.96	475.26
432.33	484.65
432.70	493.62
433.08	504.22
433.45	514.23
433.82	524.08
434.19	535.13
434.56	546.00
434.93	556.56
435.30	567.01
435.68	578.91
436.05	590.53
436.42	602.14
436.79	612.75
437.16	624.29
437.53	636.64
437.90	648.98
438.27	661.14
438.64	674.21
439.01	686.10
439.38	697.03
439.75	707.60
440.13	719.66
440.50	731.08
440.87	740.24
441.24	750.33
441.61	761.37
441.98	769.53
442.35	779.23
442.72	789.11
443.09	798.53
443.46	804.66
443.83	809.35
444.20	813.23
444.57	818.85
444.94	822.23
445.31	825.70
445.68	828.70
446.05	830.99
446.42	830.79
446.79	830.33
447.16	829.97
447.53	829.70
447.90	826.25
448.27	822.99
448.64	817.74
449.01	814.14
449.37	806.59
449.74	799.75
450.11	790.89
450.48	781.15
450.85	771.36
451.22	762.95
451.59	754.66
451.96	747.20
452.33	736.31
452.70	726.61
453.07	714.85
453.43	703.13
453.80	691.66
454.17	680.68
454.54	670.54
454.91	659.08
455.28	648.26
455.65	638.02
456.02	627.18
456.38	618.50
456.75	607.36
457.12	598.36
457.49	589.27
457.86	580.68
458.23	573.09
458.59	564.74
458.96	556.19
459.33	548.67
459.70	540.99
460.07	535.15
460.43	528.26
460.80	521.81
461.17	516.19
461.54	510.15
461.91	504.46
462.27	498.69
462.64	493.96
463.01	488.55
463.38	483.11
463.74	478.21
464.11	473.83
464.48	469.88
464.85	465.66
465.21	462.41
465.58	458.79
465.95	454.67
466.32	451.41
466.68	448.21
467.05	444.96
467.42	441.84
467.78	438.49
468.15	435.41
468.52	433.15
468.88	430.15
469.25	427.39
469.62	425.22
469.98	422.86
470.35	420.77
470.72	418.85
471.08	416.93
471.45	415.30
471.82	413.49
472.18	411.60
472.55	410.35
472.92	408.82
473.28	407.63
473.65	406.35
474.02	405.11
474.38	404.07
474.75	403.47
475.11	402.60
475.48	402.19
475.85	401.74
476.21	401.47
476.58	401.27
476.94	401.44
477.31	401.47
477.67	401.55
478.04	401.86
478.41	402.29
478.77	402.89
479.14	403.26
479.50	404.04
479.87	405.04
480.23	406.01
480.60	406.97
480.96	407.91
481.33	409.36
481.69	410.79
482.06	412.19
482.42	413.48
482.79	415.11
483.15	416.99
483.52	419.13
483.88	421.17
484.25	423.34
484.61	425.59
484.98	428.03
485.34	430.76
485.71	433.61
486.07	436.67
486.44	439.69
486.80	443.09
487.17	446.56
487.53	450.33
487.90	454.29
488.26	458.58
488.62	463.09
488.99	467.58
489.35	472.31
489.72	477.42
490.08	482.78
490.44	488.23
490.81	493.94
491.17	499.78
491.54	506.05
491.90	512.47
492.26	519.32
492.63	526.49
492.99	534.00
493.36	541.66
493.72	549.70
494.08	557.96
494.45	566.60
494.81	575.61
495.17	584.90
495.54	594.64
495.90	604.86
496.26	615.27
496.63	625.98
496.99	637.05
497.35	648.64
497.72	660.49
498.08	672.70
498.44	685.24
498.80	698.48
499.17	712.01
499.53	725.97
499.89	740.37
500.26	754.93
500.62	769.82
500.98	785.58
501.34	801.36
501.71	817.91
502.07	834.77
502.43	852.09
502.79	869.57
503.16	887.60
503.52	905.79
503.88	924.39
504.24	943.44
504.60	962.76
504.97	982.65
505.33	1003.02
505.69	1024.43
506.05	1045.98
506.41	1067.44
506.78	1089.02
507.14	1111.20
507.50	1133.81
507.86	1156.82
508.22	1180.03
508.59	1203.06
508.95	1227.11
509.31	1251.65
509.67	1276.80
510.03	1301.87
510.39	1326.85
510.75	1351.90
511.12	1377.33
511.48	1402.88
511.84	1428.38
512.20	1454.13
512.56	1480.94
512.92	1507.60
513.28	1533.61
513.64	1560.02
514.00	1586.76
514.37	1613.77
514.73	1640.78
515.09	1667.06
515.45	1693.67
515.81	1720.42
516.17	1746.89
516.53	1772.68
516.89	1798.28
517.25	1824.14
517.61	1849.78
517.97	1876.07
518.33	1901.70
518.69	1927.17
519.05	1953.03
519.41	1979.04
519.77	2005.00
520.13	2029.48
520.49	2053.97
520.85	2078.80
521.21	2103.06
521.57	2127.56
521.93	2151.04
522.29	2175.11
522.65	2199.02
523.01	2222.61
523.37	2245.53
523.73	2269.12
524.09	2292.48
524.45	2315.39
524.81	2337.68
525.17	2359.71
525.53	2381.00
525.89	2402.67
526.25	2423.93
526.61	2443.64
526.97	2463.37
527.33	2482.95
527.68	2502.15
528.04	2521.02
528.40	2538.62
528.76	2556.34
529.12	2573.63
529.48	2591.45
529.84	2606.61
530.20	2622.21
530.56	2636.94
530.91	2651.80
531.27	2666.03
531.63	2679.28
531.99	2692.35
532.35	2705.12
532.71	2717.47
533.07	2730.05
533.42	2740.86
533.78	2751.84
534.14	2763.73
534.50	2774.41
534.86	2785.72
535.21	2794.98
535.57	2803.89
535.93	2812.72
536.29	2819.92
536.65	2826.90
537.00	2832.39
537.36	2839.16
537.72	2844.87
538.08	2850.15
538.44	2854.30
538.79	2858.29
539.15	2860.99
539.51	2862.93
539.87	2863.71
540.22	2862.91
540.58	2862.35
540.94	2862.51
541.29	2861.62
541.65	2859.37
542.01	2856.84
542.37	2852.58
542.72	2849.94
543.08	2845.76
543.44	2841.74
543.79	2837.19
544.15	2831.90
544.51	2826.93
544.87	2820.86
545.22	2813.97
545.58	2806.86
545.94	2799.99
546.29	2791.66
546.65	2783.57
547.01	2775.56
547.36	2767.99
547.72	2760.63
548.07	2751.64
548.43	2741.46
548.79	2731.06
549.14	2721.01
549.50	2711.09
549.86	2700.29
550.21	2687.95
550.57	2676.69
550.92	2663.67
551.28	2651.19
551.64	2639.04
551.99	2626.50
552.35	2613.63
552.70	2600.69
553.06	2588.20
553.41	2575.32
553.77	2562.13
554.13	2548.96
554.48	2534.77
554.84	2519.69
555.19	2505.25
555.55	2490.70
555.90	2476.64
556.26	2462.88
556.61	2448.01
556.97	2432.16
557.32	2416.77
557.68	2401.74
558.03	2386.43
558.39	2372.08
558.74	2358.26
559.10	2342.65
559.45	2327.26
559.81	2312.60
560.16	2297.56
560.52	2282.33
560.87	2267.23
561.23	2251.74
561.58	2236.88
561.94	2221.63
562.29	2205.96
562.64	2190.38
563.00	2174.98
563.35	2159.80
563.71	2144.25
564.06	2128.84
564.42	2113.91
564.77	2099.07
565.12	2083.94
565.48	2068.67
565.83	2053.59
566.19	2038.53
566.54	2023.76
566.89	2008.39
567.25	1992.88
567.60	1978.23
567.96	1962.83
568.31	1946.27
568.66	1930.74
569.02	1915.67
569.37	1901.16
569.72	1887.29
570.08	1872.94
570.43	1858.00
570.78	1842.91
571.14	1827.65
571.49	1812.48
571.84	1797.63
572.20	1781.71
572.55	1766.52
572.90	1751.31
573.26	1736.11
573.61	1720.32
573.96	1705.03
574.31	1689.72
574.67	1674.27
575.02	1658.52
575.37	1642.86
575.72	1627.93
576.08	1612.78
576.43	1597.00
576.78	1581.41
577.13	1566.01
577.49	1550.85
577.84	1536.14
578.19	1520.97
578.54	1505.87
578.90	1490.72
579.25	1475.44
579.60	1461.28
579.95	1446.87
580.30	1432.45
580.66	1417.80
581.01	1403.30
581.36	1388.84
581.71	1375.15
582.06	1361.47
582.42	1347.64
582.77	1334.24
583.12	1321.12
583.47	1307.90
583.82	1294.88
584.17	1281.43
584.53	1268.04
584.88	1254.96
585.23	1241.74
585.58	1228.95
585.93	1216.04
586.28	1204.09
586.63	1192.00
586.98	1179.54
587.34	1167.48
587.69	1155.19
588.04	1143.29
588.39	1131.64
588.74	1119.66
589.09	1107.81
589.44	1095.69
589.79	1084.14
590.14	1072.63
590.49	1061.11
590.84	1049.90
591.19	1038.94
591.54	1028.07
591.89	1016.87
592.25	1006.00
592.60	995.05
592.95	984.23
593.30	973.74
593.65	962.99
594.00	952.51
594.35	942.88
594.70	932.61
595.05	922.98
595.40	913.14
595.75	903.14
596.10	893.71
596.45	884.27
596.80	875.16
597.15	866.07
597.50	857.00
597.85	848.23
598.19	839.38
598.54	830.58
598.89	822.29
599.24	814.36
599.59	806.23
599.94	798.68
600.29	791.12
600.64	783.50
600.99	775.73
601.34	768.22
601.69	760.22
602.04	753.04
602.39	745.77
602.74	738.69
603.08	731.72
603.43	724.77
603.78	717.82
604.13	710.95
604.48	704.11
604.83	697.50
605.18	690.95
605.53	684.57
605.87	678.14
606.22	671.79
606.57	665.36
606.92	658.89
607.27	652.47
607.62	646.27
607.96	640.29
608.31	634.74
608.66	629.06
609.01	623.65
609.36	618.21
609.70	612.73
610.05	607.31
610.40	602.04
610.75	596.76
611.10	591.69
611.44	586.61
611.79	581.67
612.14	576.63
612.49	571.65
612.83	566.94
613.18	562.31
613.53	557.67
613.88	553.16
614.22	548.98
614.57	544.71
614.92	540.50
615.27	536.42
615.61	532.27
615.96	528.18
616.31	524.08
616.65	520.13
617.00	516.31
617.35	512.51
617.70	508.74
618.04	505.07
618.39	501.50
618.74	498.16
619.08	494.76
619.43	491.49
619.78	488.18
620.12	484.85
620.47	481.69
620.82	478.62
621.16	475.57
621.51	472.56
621.85	469.58
622.20	466.68
622.55	463.74
622.89	460.84
623.24	458.12
623.59	455.46
623.93	452.84
624.28	450.37
624.62	448.09
624.97	445.82
625.32	443.42
625.66	441.06
626.01	438.63
626.35	436.34
626.70	433.99
627.04	431.85
627.39	429.65
627.73	427.55
628.08	425.49
628.43	423.45
628.77	421.35
629.12	419.36
629.46	417.44
629.81	415.67
630.15	413.81
630.50	411.97
630.84	410.16
631.19	408.41
631.53	406.72
631.88	404.84
632.22	403.07
632.57	401.59
632.91	400.05
633.26	398.58
633.60	397.14
633.95	395.77
634.29	394.28
634.64	392.88
634.98	391.32
635.32	389.92
635.67	388.65
636.01	387.39
636.36	386.16
636.70	385.02
637.05	383.73
637.39	382.59
637.73	381.43
638.08	380.35
638.42	379.28
638.77	378.08
639.11	376.88
639.45	375.71
639.80	374.49
640.14	373.33
640.49	372.20
640.83	371.02
641.17	369.91
641.52	368.83
641.86	367.77
642.20	366.85
642.55	365.78
642.89	364.73
643.23	363.73
643.58	362.86
643.92	361.82
644.26	360.87
644.61	359.94
644.95	358.98
645.29	357.96
645.64	356.92
645.98	356.00
646.32	355.18
646.66	354.30
647.01	353.44
647.35	352.68
647.69	351.85
648.04	351.13
648.38	350.34
648.72	349.56
649.06	348.78
649.41	347.98
649.75	347.21
650.09	346.49
650.43	345.73
650.78	344.93
651.12	344.20
651.46	343.46
651.80	342.74
652.14	342.05
652.49	341.43
652.83	340.75
653.17	340.05
653.51	339.36
653.85	338.77
654.20	338.14
654.54	337.39
654.88	336.69
655.22	336.05
655.56	335.36
655.90	334.71
656.25	334.07
656.59	333.45
656.93	332.86
657.27	332.31
657.61	331.71
657.95	331.15
658.29	330.56
658.64	330.01
658.98	329.40
659.32	328.81
659.66	328.23
660.00	327.72
660.34	327.18
660.68	326.60
661.02	325.96
661.36	325.36
661.70	324.82
662.05	324.30
662.39	323.77
662.73	323.32
663.07	322.90
663.41	322.45
663.75	321.94
664.09	321.42
664.43	320.80
664.77	320.27
665.11	319.68
665.45	319.17
665.79	318.67
666.13	318.13
666.47	317.59
666.81	317.04
667.15	316.44
667.49	315.99
667.83	315.57
668.17	315.12
668.51	314.70
668.85	314.28
669.19	313.93
669.53	313.39
669.87	312.85
670.21	312.30
670.55	311.79
670.89	311.39
671.23	310.95
671.57	310.56
671.91	310.20
672.25	309.86
672.58	309.53
672.92	309.08
673.26	308.73
673.60	308.36
673.94	307.99
674.28	307.65
674.62	307.26
674.96	306.82
675.30	306.46
675.64	306.02
675.97	305.56
676.31	305.08
676.65	304.64
676.99	304.32
677.33	303.88
677.67	303.49
678.01	303.01
678.34	302.58
678.68	302.18
679.02	301.72
679.36	301.27
679.70	300.80
680.04	300.41
680.37	300.00
680.71	299.60
681.05	299.24
681.39	298.80
681.73	298.32
682.06	297.89
682.40	297.48
682.74	297.10
683.08	296.80
683.42	296.42
683.75	296.08
684.09	295.59
684.43	295.19
684.77	294.77
685.10	294.38
685.44	293.99
685.78	293.59
686.12	293.19
686.45	292.78
686.79	292.34
687.13	291.94
687.46	291.50
687.80	291.09
688.14	290.61
688.48	290.19
688.81	289.79
689.15	289.44
689.49	289.00
689.82	288.57
690.16	288.03
690.50	287.58
690.83	287.13
691.17	286.69
691.51	286.29
691.84	285.89
692.18	285.46
692.52	285.00
692.85	284.56
693.19	284.19
693.52	283.76
693.86	283.33
694.20	282.90
694.53	282.48
694.87	282.02
695.21	281.60
695.54	281.18
695.88	280.73
696.21	280.24
696.55	279.80
696.88	279.36
697.22	278.96
697.56	278.56
697.89	278.10
698.23	277.70
698.56	277.27
698.90	276.87
699.23	276.42
699.57	276.03
699.90	275.62
700.24	275.16
700.58	274.78
700.91	274.43
701.25	274.20
701.58	273.88
701.92	273.55
702.25	273.18
702.59	272.78
702.92	272.41
703.26	272.01
703.59	271.61
703.93	271.37
704.26	271.00
704.60	270.61
704.93	270.23
705.26	269.84
705.60	269.49
705.93	269.06
706.27	268.77
706.60	268.44
706.94	268.13
707.27	267.75
707.61	267.37
707.94	266.97
708.27	266.42
708.61	265.98
708.94	265.59
709.28	265.22
709.61	264.85
709.94	264.52
710.28	264.20
710.61	263.89
710.95	263.40
711.28	263.18
711.61	262.83
711.95	262.54
712.28	262.21
712.61	261.85
712.95	261.64
713.28	261.37
713.61	261.01
713.95	260.65
714.28	260.34
714.61	260.00
714.95	259.69
715.28	259.39
715.61	259.10
715.95	258.81
716.28	258.51
716.61	258.25
716.95	257.94
717.28	257.65
717.61	257.36
717.94	257.08
718.28	256.69
718.61	256.41
718.94	256.10
719.27	255.83
719.61	255.59
719.94	255.27
720.27	254.92
720.60	254.66
720.94	254.39
721.27	254.14
721.60	253.93
721.93	253.67
722.27	253.46
722.60	253.21
722.93	252.93
723.26	252.71
723.59	252.43
723.93	252.22
724.26	251.99
724.59	251.74
724.92	251.52
725.25	251.35
725.59	251.12
725.92	250.91
726.25	250.68
726.58	250.45
726.91	250.22
727.24	250.02
727.57	249.80
727.91	249.56
728.24	249.36
728.57	249.13
728.90	248.94
729.23	248.67
729.56	248.56
729.89	248.36
730.22	248.14
730.55	247.93
730.89	247.72
731.22	247.52
731.55	247.34
731.88	247.16
732.21	246.92
732.54	246.72
732.87	246.54
733.20	246.37
733.53	246.19
733.86	246.03
734.19	245.83
734.52	245.69
734.85	245.64
735.18	245.46
735.51	245.34
735.84	245.19
736.17	245.09
736.50	244.82
736.83	244.88
737.16	244.73
737.49	244.58
737.82	244.40
738.15	244.26
738.48	244.09
738.81	243.93
739.14	243.75
739.47	243.59
739.80	243.43
740.13	243.30
740.46	243.11
740.79	242.93
741.12	242.77
741.45	242.58
741.78	242.32
742.11	242.20
742.44	242.00
742.77	241.87
743.10	241.69
743.43	241.54
743.75	241.20
744.08	241.31
744.41	241.15
744.74	241.00
745.07	240.83
745.40	240.73
745.73	240.66
746.06	240.54
746.39	240.44
746.71	240.29
747.04	240.13
747.37	240.00
747.70	239.90
748.03	239.79
748.36	239.69
748.68	239.56
749.01	239.39
749.34	239.29
749.67	239.17
750.00	239.07
750.33	239.10
750.65	239.00
750.98	238.63
751.31	238.52
751.64	238.43
751.97	238.42
752.29	238.29
752.62	238.09
752.95	237.98
753.28	237.83
753.60	237.71
753.93	237.64
754.26	237.55
754.59	237.39
754.91	237.25
755.24	237.13
755.57	237.04
755.90	236.93
756.22	236.80
756.55	236.66
756.88	236.51
757.20	236.29
757.53	236.13
757.86	236.03
758.19	235.94
758.51	235.84
758.84	235.65
759.17	235.54
759.49	235.47
759.82	235.46
760.15	235.39
760.47	235.31
760.80	235.18
761.13	235.11
761.45	235.02
761.78	234.94
762.11	234.86
762.43	234.75
762.76	234.65
763.08	234.61
763.41	234.55
763.74	234.50
764.06	234.41
764.39	234.34
764.71	234.27
765.04	234.17
765.37	234.08
765.69	234.01
766.02	233.94
766.34	233.85
766.67	233.70
767.00	233.66
767.32	233.68
767.65	233.73
767.97	233.66
768.30	233.60
768.62	233.54
768.95	233.46
769.27	233.39
769.60	233.37
769.92	233.27
770.25	233.16
770.57	233.07
770.90	233.01
771.22	232.94
771.55	232.89
771.87	232.85
772.20	232.79
772.52	232.89
772.85	233.05
773.17	233.01
773.50	232.95
773.82	232.88
774.15	232.74
774.47	232.57
774.80	232.49
775.12	232.45
775.45	232.39
775.77	232.36
776.09	232.32
776.42	232.26
776.74	232.28
777.07	232.23
777.39	232.19
777.72	232.13
778.04	232.12
778.36	232.05
778.69	232.02
779.01	231.99
779.33	231.79
779.66	231.54
779.98	231.49
780.31	231.45
780.63	231.48
780.95	231.47
781.28	231.43
781.60	231.39
781.92	231.34
782.25	231.31
782.57	231.26
782.89	231.23
783.22	231.18
783.54	231.10
783.86	231.08
784.19	231.04
784.51	231.06
784.83	231.01
785.16	230.98
785.48	230.95
785.80	230.92
786.12	230.90
786.45	230.87
786.77	230.84
787.09	230.80
787.42	230.70
787.74	230.68
788.06	230.67
788.38	230.64
788.71	230.60
789.03	230.59
789.35	230.58
789.67	230.52
789.99	230.51
790.32	230.47
790.64	230.46
790.96	230.60
791.28	230.52
791.61	230.48
791.93	230.47
792.25	230.43
792.57	230.53
792.89	230.49
793.21	230.47
793.54	230.44
793.86	230.39
794.18	230.36
794.50	230.30
794.82	230.28
795.14	230.28
795.47	230.30
795.79	230.27
796.11	230.21
796.43	230.19
796.75	230.17
797.07	230.16
797.39	230.12
797.71	229.95
798.04	229.94
798.36	229.93
798.68	229.89
799.00	229.89
799.32	229.77
799.64	229.78
799.96	229.76
800.28	229.78
800.60	229.76
800.92	229.78
801.24	229.76
801.56	229.75
801.89	229.71
802.21	229.69
802.53	229.65
802.85	229.68
803.17	229.74
803.49	229.68
803.81	229.66
804.13	229.63
804.45	229.60
804.77	229.60
805.09	229.58
805.41	229.55
805.73	229.51
806.05	229.45
806.37	229.43
806.69	229.40
807.01	229.36
807.33	229.36
807.65	229.25
807.97	229.32
808.28	229.28
808.60	229.27
808.92	229.22
809.24	229.31
809.56	229.26
809.88	229.18
810.20	229.17
810.52	229.19
810.84	229.15
811.16	229.12
811.48	229.08
811.80	229.14
812.12	229.12
812.43	229.14
812.75	229.15
813.07	229.12
813.39	229.11
813.71	229.07
814.03	229.05
814.35	229.07
814.67	228.97
814.98	228.95
815.30	228.93
815.62	228.91
815.94	228.78
816.26	228.79
816.58	228.75
816.89	228.76
817.21	228.71
817.53	228.70
817.85	228.69
818.17	228.69
818.48	228.60
818.80	228.62
819.12	228.58
819.44	228.54
819.76	228.50
820.07	228.49
820.39	228.47
820.71	228.47
821.03	228.47
821.34	228.44
821.66	228.46
821.98	228.47
822.30	228.45
822.61	228.56
822.93	228.51
823.25	228.49
823.57	228.46
823.88	228.48
824.20	228.46
824.52	228.49
824.83	228.47
825.15	228.43
825.47	228.41
825.79	228.41
826.10	228.39
826.42	228.38
826.74	228.38
827.05	228.38
827.37	228.36
827.69	228.34
828.00	228.35
828.32	228.33
828.64	228.30
828.95	228.38
829.27	228.32
829.58	228.32
829.90	228.35
830.22	228.36
830.53	228.31
830.85	228.29
831.17	228.23
831.48	228.22
831.80	228.24
832.11	228.22
832.43	228.20
832.75	228.19
833.06	228.30
833.38	228.24
833.69	228.23
834.01	228.23
834.32	228.23
834.64	228.19
834.96	228.19
835.27	228.18
835.59	228.11
835.90	228.07
836.22	228.06
836.53	228.03
836.85	228.00
837.16	228.18
837.48	228.18
837.79	228.25
838.11	228.26
838.42	228.24
838.74	228.26
839.05	228.24
839.37	228.23
839.68	228.11
840.00	228.10
840.31	228.12
840.63	228.09
840.94	228.07
841.26	228.04
841.57	228.03
841.88	228.04
842.20	228.02
842.51	227.99
842.83	227.99
843.14	228.13
843.46	228.12
843.77	228.01
844.08	227.99
844.40	227.92
844.71	227.90
845.03	227.88
845.34	227.86
845.65	227.86
845.97	227.86
846.28	227.87
846.60	227.88
846.91	227.84
847.22	227.84
847.54	227.88
847.85	227.89
848.16	227.88
848.48	227.85
848.79	227.91
849.10	227.93
849.42	227.94
849.73	227.77
850.04	227.76
850.36	227.69
850.67	227.73
850.98	227.73
851.30	227.76
851.61	227.74
851.92	227.74
852.23	227.79
852.55	227.80
852.86	227.80
853.17	227.82
853.49	227.86
853.80	227.89
854.11	227.91
854.42	227.93
854.74	227.92
855.05	227.92
855.36	227.82
855.67	227.82
855.99	227.82
856.30	228.02
856.61	228.02
856.92	228.02
857.23	228.02
857.55	228.00
857.86	227.97
858.17	227.99
858.48	227.95
858.79	227.91
859.11	227.94
859.42	227.92
859.73	227.89
860.04	227.87
860.35	227.81
860.66	227.74
860.98	227.74
861.29	227.75
861.60	227.73
861.91	227.77
862.22	227.75
862.53	227.72
862.84	227.52
863.16	227.56
863.47	227.52
863.78	227.49
864.09	227.51
864.40	227.53
864.71	227.53
865.02	227.56
865.33	227.53
865.64	227.47
865.95	227.47
866.27	227.57
866.58	227.56
866.89	227.59
867.20	227.60
867.51	227.57
867.82	227.55
868.13	227.61
868.44	227.57
868.75	227.61
869.06	227.63
869.37	227.65
869.68	227.60
869.99	227.64
870.30	227.64
870.61	227.65
870.92	227.62
871.23	227.61
871.54	227.62
871.85	227.66
872.16	227.69
872.47	227.67
872.78	227.57
873.09	227.58
873.40	227.55
873.71	227.56
874.02	227.57
874.33	227.56
874.64	227.52
874.95	227.54
875.26	227.49
875.56	227.49
875.87	227.47
876.18	227.47
876.49	227.65
876.80	227.64
877.11	227.62
877.42	227.63
877.73	227.64
878.04	227.61
878.35	227.60
878.66	227.60
878.96	227.62
879.27	227.61
879.58	227.60
879.89	227.59
880.20	227.64
880.51	227.64
880.82	227.64
881.12	227.65
881.43	227.61
881.74	227.61
882.05	227.59
882.36	227.59
882.67	227.61
882.97	227.41
883.28	227.41
883.59	227.39
883.90	227.41
884.21	227.43
884.51	227.42
884.82	227.40
885.13	227.40
885.44	227.38
885.74	227.39
886.05	227.38
886.36	227.38
886.67	227.32
886.98	227.41
887.28	227.41
887.59	227.40
887.90	227.41
888.20	227.40
888.51	227.43
888.82	227.41
889.13	227.41
889.43	227.57
889.74	227.55
890.05	227.56
890.35	227.54
890.66	227.52
890.97	227.48
891.28	227.47
891.58	227.46
891.89	227.45
892.20	227.44
892.50	227.42
892.81	227.41
893.12	227.42
893.42	227.33
893.73	227.33
894.04	227.32
894.34	227.34
894.65	227.35
894.95	227.33
895.26	227.34
895.57	227.41
895.87	227.23
896.18	227.25
896.48	227.25
896.79	227.25
897.10	227.27
897.40	227.28
897.71	227.30
898.01	227.29
898.32	227.32
898.63	227.32
898.93	227.34
899.24	227.35
899.54	227.34
899.85	227.34
900.15	227.32
900.46	227.33
900.76	227.34
901.07	227.33
901.38	227.33
901.68	227.36
901.99	227.28
902.29	227.29
902.60	227.28
902.90	227.27
903.21	227.27
903.51	227.24
903.82	227.28
904.12	227.29
904.43	227.30
904.73	227.28
905.03	227.29
905.34	227.45
905.64	227.44
905.95	227.43
906.25	227.43
906.56	227.43
906.86	227.42
907.17	227.39
907.47	227.40
907.77	227.38
908.08	227.33
908.38	227.33
908.69	227.35
908.99	227.37
909.30	227.38
909.60	227.38
909.90	227.39
910.21	227.34
910.51	227.31
910.81	227.30
911.12	227.31
911.42	227.31
911.73	227.14
912.03	227.15
912.33	227.19
912.64	227.18
912.94	227.17
913.24	227.15
913.55	227.15
913.85	227.13
914.15	227.18
914.46	227.19
914.76	227.18
915.06	227.18
915.37	227.14
915.67	227.13
915.97	227.13
916.27	227.09
916.58	227.10
916.88	227.11
917.18	227.09
917.49	227.21
917.79	227.20
918.09	227.22
918.39	227.26
918.70	227.24
919.00	227.26
919.30	227.34
919.60	227.33
919.91	227.30
920.21	227.33
920.51	227.28
920.81	227.27
921.12	227.30
921.42	227.27
921.72	227.30
922.02	227.31
922.32	227.33
922.63	227.35
922.93	227.45
923.23	227.46
923.53	227.44
923.83	227.33
924.13	227.36
924.44	227.34
924.74	227.38
925.04	227.42
925.34	227.42
925.64	227.34
925.94	227.34
926.24	227.45
926.55	227.43
926.85	227.47
927.15	227.47
927.45	227.46
927.75	227.47
928.05	227.46
928.35	227.45
928.65	227.48
928.95	227.49
929.26	227.42
929.56	227.45
929.86	227.48
930.16	227.45
930.46	227.44
930.76	227.46
931.06	227.38
931.36	227.34
931.66	227.36
931.96	227.38
932.26	227.39
932.56	227.31
932.86	227.32
933.16	227.32
933.46	227.30
933.76	227.29
934.06	227.32
934.36	227.38
934.66	227.37
934.96	227.33
935.26	227.34
935.56	227.35
935.86	227.31
936.16	227.27
936.46	227.26
936.76	227.25
937.06	227.22
937.36	227.24
937.66	227.25
937.96	227.23
938.26	227.19
938.56	227.18
938.86	227.19
939.16	227.22
939.46	227.23
939.76	227.24
940.06	227.23
940.35	227.20
940.65	227.11
940.95	227.12
941.25	227.09
941.55	227.06
941.85	227.05
942.15	227.10
942.45	227.15
942.75	227.14
943.04	227.14
943.34	227.18
943.64	227.16
943.94	227.13
944.24	227.13
944.54	227.14
944.84	227.14
945.13	227.11
945.43	227.08
945.73	227.05
946.03	227.04
946.33	227.03
946.62	227.02
946.92	227.02
947.22	227.04
947.52	227.06
947.82	227.08
948.11	227.07
948.41	227.03
948.71	226.97
949.01	226.98
949.31	226.97
949.60	226.96
949.90	226.97
950.20	226.96
950.50	226.96
950.79	226.95
951.09	226.97
951.39	226.97
951.69	226.96
951.98	227.00
952.28	227.01
952.58	227.00
952.87	227.01
953.17	227.04
953.47	227.02
953.76	227.00
954.06	226.97
954.36	226.95
954.66	226.94
954.95	226.99
955.25	227.00
955.55	227.02
955.84	226.99
956.14	227.00
956.44	227.02
956.73	227.01
957.03	227.01
957.32	227.01
957.62	227.01
957.92	227.05
958.21	227.02
958.51	227.23
958.81	227.27
959.10	227.29
959.40	227.31
959.69	227.32
959.99	227.34
960.29	227.34
960.58	227.33
960.88	227.41
961.17	227.39
961.47	227.40
961.76	227.38
962.06	227.42
962.36	227.40
962.65	227.41
962.95	227.42
963.24	227.41
963.54	227.41
963.83	227.42
964.13	227.41
964.42	227.40
964.72	227.25
965.01	227.24
965.31	227.22
965.60	227.18
965.90	227.30
966.19	227.26
966.49	227.28
966.78	227.28
967.08	227.25
967.37	227.25
967.67	227.20
967.96	227.23
968.26	227.22
968.55	227.24
968.85	227.23
969.14	227.23
969.43	227.23
969.73	227.21
970.02	227.20
970.32	227.18
970.61	227.15
970.91	227.09
971.20	227.08
971.49	227.06
971.79	227.08
972.08	226.94
972.38	226.97
972.67	226.95
972.96	226.97
973.26	226.93
973.55	226.98
973.85	226.98
974.14	226.96
974.43	226.97
974.73	226.95
975.02	226.93
975.31	226.93
975.61	226.93
975.90	226.92
976.19	226.91
976.49	226.94
976.78	226.95
977.07	226.94
977.37	226.95
977.66	226.97
977.95	226.93
978.24	226.94
978.54	226.96
978.83	226.95
979.12	226.94
979.42	226.95
979.71	226.91
980.00	226.90
980.29	226.90
980.59	226.87
980.88	226.91
981.17	226.90
981.46	226.90
981.76	226.90
982.05	226.95
982.34	226.97
982.63	226.96
982.93	226.97
983.22	227.03
983.51	227.04
983.80	227.05
984.09	227.08
984.39	227.07
984.68	227.04
984.97	227.06
985.26	227.05
985.55	227.08
985.85	227.03
986.14	227.07
986.43	227.09
986.72	227.08
987.01	227.03
987.30	227.03
987.59	227.01
987.89	227.02
988.18	226.97
988.47	226.95
988.76	226.94
989.05	226.90
989.34	226.86
989.63	226.91
989.92	226.89
990.22	226.87
990.51	226.87
990.80	226.86
991.09	226.88
991.38	226.90
991.67	226.87
991.96	226.87
992.25	226.87
992.54	226.84
992.83	226.84
993.12	226.84
993.41	226.88
993.70	226.95
993.99	226.99
994.28	227.00
994.58	227.04
994.87	227.02
995.16	227.02
995.45	227.02
995.74	226.96
996.03	226.98
996.32	227.02
996.61	227.06
996.90	227.07
997.19	227.06
997.48	227.06
997.77	227.04
998.06	227.06
998.34	227.04
998.63	227.06
998.92	227.07
999.21	227.10
999.50	227.10
999.79	227.04
1000.08	227.03
1000.37	227.03
1000.66	227.00
1000.95	227.05
1001.24	227.05
1001.53	227.08
1001.82	227.07
1002.11	227.03
1002.40	227.03
1002.68	227.06
1002.97	227.17
1003.26	227.13
1003.55	227.11
1003.84	227.14
1004.13	227.20
1004.42	227.19
1004.71	227.18
1004.99	227.17
1005.28	227.21
1005.57	227.18
1005.86	227.17
1006.15	227.16
1006.44	227.14
1006.72	227.15
1007.01	227.12
1007.30	227.13
1007.59	227.11
1007.88	227.11
1008.17	227.12
1008.45	227.08
1008.74	227.01
1009.03	226.93
1009.32	226.94
1009.60	226.94
1009.89	226.92
1010.18	226.84
1010.47	226.84
1010.76	226.84
1011.04	226.83
1011.33	226.81
1011.62	226.84
1011.91	226.86
1012.19	226.86
1012.48	226.88
1012.77	226.88
1013.05	226.94
1013.34	226.93
1013.63	226.92
1013.92	226.93
1014.20	226.91
1014.49	226.93
1014.78	226.94
1015.06	226.88
1015.35	226.89
1015.64	226.91
1015.92	226.94
1016.21	226.94
1016.50	226.95
1016.78	226.96
1017.07	226.98
1017.36	226.95
1017.64	226.92
1017.93	226.93
1018.22	226.90
1018.50	226.89
1018.79	226.88
1019.08	226.83
1019.36	226.83
1019.65	226.83
1019.93	226.89
1020.22	226.92
1020.51	227.01
1020.79	227.00
1021.08	226.46
1021.36	226.66
1021.65	226.89
1021.94	227.01
1022.22	226.98
1022.51	226.74
1022.79	227.90
1023.08	227.22
1023.36	228.97
1023.65	226.55
>>>>>End Processed Spectral Data<<<<<
