SpectraSuite Data File
++++++++++++++++++++++++++++++++++++
Date: Tue Oct 06 21:54:08 EDT 2015
User: lab3
Dark Spectrum Present: No
Reference Spectrum Present: No
Number of Sampled Component Spectra: 1
Spectrometers: USB2E7196
Integration Time (usec): 66000 (USB2E7196)
Spectra Averaged: 5000 (USB2E7196)
Boxcar Smoothing: 10 (USB2E7196)
Correct for Electrical Dark: No (USB2E7196)
Strobe/Lamp Enabled: No (USB2E7196)
Correct for Detector Non-linearity: No (USB2E7196)
Correct for Stray Light: No (USB2E7196)
Number of Pixels in Processed Spectrum: 2048
>>>>>Begin Processed Spectral Data<<<<<
339.09	0.00
339.48	213.23
339.86	214.72
340.24	216.03
340.63	217.46
341.01	221.62
341.39	220.16
341.78	221.68
342.16	223.03
342.54	223.22
342.93	211.81
343.31	222.51
343.69	223.05
344.07	223.51
344.46	223.96
344.84	224.37
345.22	224.57
345.60	224.85
345.99	225.06
346.37	225.21
346.75	225.33
347.13	225.42
347.52	225.51
347.90	225.64
348.28	225.69
348.66	225.78
349.05	225.77
349.43	225.85
349.81	225.93
350.19	225.99
350.57	226.07
350.96	226.18
351.34	226.29
351.72	226.40
352.10	226.52
352.48	226.59
352.87	226.64
353.25	226.71
353.63	226.76
354.01	226.82
354.39	226.90
354.77	226.97
355.15	227.10
355.54	227.13
355.92	227.15
356.30	227.23
356.68	227.41
357.06	227.49
357.44	227.52
357.82	227.58
358.20	227.80
358.58	227.86
358.97	227.92
359.35	228.02
359.73	228.11
360.11	228.16
360.49	228.23
360.87	228.28
361.25	228.34
361.63	228.46
362.01	228.51
362.39	228.53
362.77	228.60
363.15	228.61
363.53	228.65
363.91	228.69
364.29	228.71
364.67	228.56
365.05	228.58
365.43	228.63
365.81	228.67
366.19	228.61
366.57	228.69
366.95	228.69
367.33	228.65
367.71	228.64
368.09	228.67
368.47	228.66
368.85	228.65
369.23	228.68
369.61	228.60
369.99	228.64
370.37	228.65
370.75	228.76
371.13	228.73
371.51	228.68
371.89	228.67
372.27	228.66
372.65	228.65
373.03	228.61
373.41	228.55
373.78	228.50
374.16	228.37
374.54	228.27
374.92	228.22
375.30	228.18
375.68	228.11
376.06	228.06
376.44	228.01
376.82	227.98
377.19	227.92
377.57	227.87
377.95	227.77
378.33	227.70
378.71	227.49
379.09	227.45
379.47	227.43
379.84	227.36
380.22	227.29
380.60	227.21
380.98	227.17
381.36	227.12
381.73	227.06
382.11	227.05
382.49	227.02
382.87	226.95
383.25	226.91
383.62	227.09
384.00	227.01
384.38	226.98
384.76	226.98
385.13	227.00
385.51	226.97
385.89	226.91
386.27	226.89
386.64	226.88
387.02	226.83
387.40	226.78
387.78	226.77
388.15	226.75
388.53	226.72
388.91	226.70
389.29	226.67
389.66	226.68
390.04	226.63
390.42	226.64
390.79	226.65
391.17	226.63
391.55	226.42
391.92	226.41
392.30	226.43
392.68	226.38
393.05	226.36
393.43	226.37
393.81	226.39
394.18	226.37
394.56	226.39
394.94	226.44
395.31	226.45
395.69	226.52
396.06	226.57
396.44	226.61
396.82	226.63
397.19	226.76
397.57	226.78
397.95	226.86
398.32	226.86
398.70	226.93
399.07	227.03
399.45	227.09
399.82	227.16
400.20	227.22
400.58	227.31
400.95	227.33
401.33	227.46
401.70	227.69
402.08	227.84
402.45	227.97
402.83	228.14
403.20	228.31
403.58	228.44
403.95	228.65
404.33	228.87
404.71	229.09
405.08	229.40
405.46	229.65
405.83	229.93
406.21	230.22
406.58	230.55
406.96	230.87
407.33	231.24
407.70	231.67
408.08	232.24
408.45	232.75
408.83	233.30
409.20	233.79
409.58	234.25
409.95	234.87
410.33	235.55
410.70	236.19
411.08	236.94
411.45	237.74
411.82	238.55
412.20	239.48
412.57	240.58
412.95	241.45
413.32	242.59
413.69	243.76
414.07	245.01
414.44	246.37
414.82	247.75
415.19	249.37
415.56	251.02
415.94	252.73
416.31	254.66
416.68	256.60
417.06	258.84
417.43	260.93
417.81	263.35
418.18	265.81
418.55	268.50
418.93	271.29
419.30	274.21
419.67	277.31
420.04	280.50
420.42	283.82
420.79	287.66
421.16	291.54
421.54	295.46
421.91	299.57
422.28	303.83
422.66	308.41
423.03	312.78
423.40	317.35
423.77	322.25
424.15	327.27
424.52	332.45
424.89	338.07
425.26	343.65
425.64	348.81
426.01	354.62
426.38	360.55
426.75	366.65
427.13	372.88
427.50	379.40
427.87	386.19
428.24	393.02
428.61	399.55
428.99	406.60
429.36	414.34
429.73	421.72
430.10	429.09
430.47	436.62
430.85	444.40
431.22	452.68
431.59	461.19
431.96	469.49
432.33	478.71
432.70	487.50
433.08	497.89
433.45	507.68
433.82	517.36
434.19	528.21
434.56	538.90
434.93	549.26
435.30	559.54
435.68	571.18
436.05	582.55
436.42	593.95
436.79	604.37
437.16	615.72
437.53	627.84
437.90	639.97
438.27	651.88
438.64	664.76
439.01	676.47
439.38	687.21
439.75	697.61
440.13	709.47
440.50	720.73
440.87	729.77
441.24	739.72
441.61	750.61
441.98	758.70
442.35	768.30
442.72	778.09
443.09	787.42
443.46	793.55
443.83	798.25
444.20	802.19
444.57	807.81
444.94	811.21
445.31	814.75
445.68	817.83
446.05	820.22
446.42	820.16
446.79	819.84
447.16	819.61
447.53	819.46
447.90	816.20
448.27	813.13
448.64	808.11
449.01	804.74
449.37	797.42
449.74	790.79
450.11	782.17
450.48	772.65
450.85	763.08
451.22	754.89
451.59	746.81
451.96	739.49
452.33	728.83
452.70	719.34
453.07	707.79
453.43	696.24
453.80	684.95
454.17	674.12
454.54	664.14
454.91	652.85
455.28	642.17
455.65	632.08
456.02	621.37
456.38	612.76
456.75	601.71
457.12	592.81
457.49	583.82
457.86	575.29
458.23	567.78
458.59	559.51
458.96	551.02
459.33	543.56
459.70	535.96
460.07	530.15
460.43	523.32
460.80	516.93
461.17	511.37
461.54	505.37
461.91	499.72
462.27	493.98
462.64	489.28
463.01	483.93
463.38	478.52
463.74	473.63
464.11	469.30
464.48	465.39
464.85	461.17
465.21	457.94
465.58	454.35
465.95	450.28
466.32	447.04
466.68	443.87
467.05	440.68
467.42	437.57
467.78	434.24
468.15	431.17
468.52	428.92
468.88	425.92
469.25	423.20
469.62	421.03
469.98	418.70
470.35	416.63
470.72	414.73
471.08	412.83
471.45	411.23
471.82	409.43
472.18	407.55
472.55	406.33
472.92	404.80
473.28	403.61
473.65	402.34
474.02	401.11
474.38	400.07
474.75	399.44
475.11	398.59
475.48	398.18
475.85	397.74
476.21	397.46
476.58	397.27
476.94	397.42
477.31	397.44
477.67	397.48
478.04	397.76
478.41	398.15
478.77	398.73
479.14	399.08
479.50	399.83
479.87	400.80
480.23	401.73
480.60	402.63
480.96	403.53
481.33	404.92
481.69	406.29
482.06	407.65
482.42	408.88
482.79	410.42
483.15	412.25
483.52	414.30
483.88	416.24
484.25	418.32
484.61	420.51
484.98	422.88
485.34	425.54
485.71	428.30
486.07	431.28
486.44	434.20
486.80	437.50
487.17	440.87
487.53	444.54
487.90	448.39
488.26	452.58
488.62	457.01
488.99	461.41
489.35	466.04
489.72	471.02
490.08	476.25
490.44	481.59
490.81	487.16
491.17	492.90
491.54	499.06
491.90	505.34
492.26	512.06
492.63	519.11
492.99	526.47
493.36	534.00
493.72	541.90
494.08	550.02
494.45	558.53
494.81	567.43
495.17	576.57
495.54	586.20
495.90	596.28
496.26	606.53
496.63	617.10
496.99	628.05
497.35	639.52
497.72	651.30
498.08	663.40
498.44	675.81
498.80	688.92
499.17	702.32
499.53	716.16
499.89	730.45
500.26	744.94
500.62	759.78
500.98	775.51
501.34	791.27
501.71	807.77
502.07	824.62
502.43	841.93
502.79	859.49
503.16	877.53
503.52	895.78
503.88	914.46
504.24	933.58
504.60	952.99
504.97	973.01
505.33	993.52
505.69	1015.11
506.05	1036.94
506.41	1058.75
506.78	1080.69
507.14	1103.19
507.50	1126.18
507.86	1149.59
508.22	1173.24
508.59	1196.76
508.95	1221.28
509.31	1246.41
509.67	1272.14
510.03	1297.85
510.39	1323.45
510.75	1349.17
511.12	1375.24
511.48	1401.65
511.84	1427.98
512.20	1454.63
512.56	1482.44
512.92	1510.11
513.28	1537.11
513.64	1564.56
514.00	1592.38
514.37	1620.50
514.73	1648.68
515.09	1676.22
515.45	1704.02
515.81	1732.14
516.17	1760.02
516.53	1787.27
516.89	1814.21
517.25	1841.46
517.61	1868.52
517.97	1896.28
518.33	1923.50
518.69	1950.65
519.05	1978.14
519.41	2005.86
519.77	2033.70
520.13	2059.94
520.49	2086.17
520.85	2112.84
521.21	2138.91
521.57	2165.34
521.93	2190.64
522.29	2216.69
522.65	2242.54
523.01	2268.14
523.37	2292.95
523.73	2318.53
524.09	2343.81
524.45	2368.97
524.81	2393.48
525.17	2417.92
525.53	2441.39
525.89	2465.36
526.25	2489.00
526.61	2510.90
526.97	2532.91
527.33	2554.65
527.68	2576.36
528.04	2597.68
528.40	2617.91
528.76	2638.14
529.12	2657.85
529.48	2678.33
529.84	2696.03
530.20	2714.10
530.56	2731.48
530.91	2748.95
531.27	2765.70
531.63	2781.68
531.99	2797.18
532.35	2812.53
532.71	2827.43
533.07	2842.80
533.42	2856.18
533.78	2869.66
534.14	2884.33
534.50	2897.85
534.86	2911.95
535.21	2923.66
535.57	2935.25
535.93	2946.50
536.29	2956.02
536.65	2965.39
537.00	2973.44
537.36	2982.69
537.72	2991.06
538.08	2998.97
538.44	3005.54
538.79	3012.00
539.15	3017.11
539.51	3021.47
539.87	3024.54
540.22	3025.88
540.58	3027.51
540.94	3029.77
541.29	3031.13
541.65	3030.95
542.01	3030.39
542.37	3028.06
542.72	3027.53
543.08	3025.19
543.44	3022.99
543.79	3020.66
544.15	3017.49
544.51	3014.23
544.87	3010.06
545.22	3004.87
545.58	2999.23
545.94	2993.98
546.29	2987.29
546.65	2980.66
547.01	2974.23
547.36	2968.36
547.72	2962.65
548.07	2955.20
548.43	2946.54
548.79	2937.51
549.14	2928.75
549.50	2920.11
549.86	2910.59
550.21	2899.25
550.57	2889.26
550.92	2877.50
551.28	2865.89
551.64	2854.66
551.99	2843.20
552.35	2831.29
552.70	2819.23
553.06	2807.74
553.41	2795.80
553.77	2783.46
554.13	2771.21
554.48	2757.72
554.84	2743.04
555.19	2728.89
555.55	2714.70
555.90	2701.07
556.26	2687.66
556.61	2673.23
556.97	2657.63
557.32	2642.46
557.68	2627.69
558.03	2612.46
558.39	2598.23
558.74	2584.71
559.10	2569.25
559.45	2553.72
559.81	2538.84
560.16	2523.64
560.52	2508.07
560.87	2492.81
561.23	2477.03
561.58	2461.91
561.94	2446.41
562.29	2430.51
562.64	2414.72
563.00	2398.93
563.35	2383.41
563.71	2367.45
564.06	2351.60
564.42	2336.25
564.77	2321.05
565.12	2305.48
565.48	2289.60
565.83	2273.80
566.19	2257.93
566.54	2242.29
566.89	2226.26
567.25	2210.22
567.60	2194.98
567.96	2179.19
568.31	2161.81
568.66	2145.29
569.02	2129.41
569.37	2114.08
569.72	2099.31
570.08	2084.11
570.43	2068.27
570.78	2052.15
571.14	2035.99
571.49	2019.78
571.84	2003.84
572.20	1986.61
572.55	1970.15
572.90	1953.84
573.26	1937.68
573.61	1920.83
573.96	1904.45
574.31	1888.00
574.67	1871.18
575.02	1854.07
575.37	1836.94
575.72	1820.71
576.08	1804.29
576.43	1786.89
576.78	1769.85
577.13	1753.01
577.49	1736.37
577.84	1720.28
578.19	1703.73
578.54	1687.13
578.90	1670.42
579.25	1653.52
579.60	1638.01
579.95	1622.14
580.30	1606.23
580.66	1590.00
581.01	1573.88
581.36	1557.83
581.71	1542.65
582.06	1527.51
582.42	1512.18
582.77	1497.24
583.12	1482.57
583.47	1467.95
583.82	1453.51
584.17	1438.46
584.53	1423.52
584.88	1408.92
585.23	1394.17
585.58	1379.83
585.93	1365.30
586.28	1351.89
586.63	1338.35
586.98	1324.22
587.34	1310.57
587.69	1296.73
588.04	1283.21
588.39	1269.98
588.74	1256.38
589.09	1242.88
589.44	1229.07
589.79	1215.92
590.14	1202.78
590.49	1189.67
590.84	1176.80
591.19	1164.34
591.54	1152.01
591.89	1139.30
592.25	1126.90
592.60	1114.36
592.95	1101.96
593.30	1090.05
593.65	1077.78
594.00	1065.82
594.35	1054.83
594.70	1043.09
595.05	1031.97
595.40	1020.72
595.75	1009.32
596.10	998.57
596.45	987.74
596.80	977.39
597.15	966.95
597.50	956.51
597.85	946.44
598.19	936.33
598.54	926.18
598.89	916.59
599.24	907.40
599.59	897.94
599.94	889.21
600.29	880.52
600.64	871.60
600.99	862.55
601.34	853.88
601.69	844.64
602.04	836.39
602.39	828.01
602.74	819.85
603.08	811.80
603.43	803.75
603.78	795.73
604.13	787.73
604.48	779.74
604.83	772.06
605.18	764.39
605.53	756.92
605.87	749.43
606.22	742.03
606.57	734.56
606.92	727.07
607.27	719.57
607.62	712.27
607.96	705.23
608.31	698.74
608.66	692.08
609.01	685.73
609.36	679.32
609.70	672.92
610.05	666.47
610.40	660.25
610.75	653.99
611.10	647.97
611.44	641.94
611.79	636.09
612.14	630.11
612.49	624.22
612.83	618.64
613.18	613.15
613.53	607.65
613.88	602.28
614.22	597.30
614.57	592.23
614.92	587.29
615.27	582.46
615.61	577.50
615.96	572.63
616.31	567.74
616.65	563.00
617.00	558.37
617.35	553.86
617.70	549.35
618.04	544.95
618.39	540.65
618.74	536.63
619.08	532.55
619.43	528.63
619.78	524.67
620.12	520.64
620.47	516.83
620.82	513.13
621.16	509.47
621.51	505.85
621.85	502.24
622.20	498.67
622.55	495.12
622.89	491.62
623.24	488.30
623.59	485.04
623.93	481.86
624.28	478.83
624.62	475.97
624.97	473.17
625.32	470.26
625.66	467.34
626.01	464.37
626.35	461.58
626.70	458.73
627.04	456.08
627.39	453.40
627.73	450.81
628.08	448.25
628.43	445.73
628.77	443.13
629.12	440.64
629.46	438.28
629.81	436.06
630.15	433.76
630.50	431.48
630.84	429.25
631.19	427.08
631.53	424.99
631.88	422.72
632.22	420.53
632.57	418.67
632.91	416.76
633.26	414.92
633.60	413.10
633.95	411.36
634.29	409.51
634.64	407.72
634.98	405.82
635.32	404.10
635.67	402.55
636.01	400.99
636.36	399.48
636.70	398.03
637.05	396.44
637.39	395.01
637.73	393.58
638.08	392.22
638.42	390.88
638.77	389.42
639.11	387.94
639.45	386.52
639.80	385.04
640.14	383.63
640.49	382.23
640.83	380.83
641.17	379.50
641.52	378.19
641.86	376.91
642.20	375.78
642.55	374.49
642.89	373.20
643.23	371.99
643.58	370.91
643.92	369.66
644.26	368.51
644.61	367.40
644.95	366.25
645.29	365.04
645.64	363.83
645.98	362.73
646.32	361.75
646.66	360.69
647.01	359.67
647.35	358.75
647.69	357.77
648.04	356.89
648.38	355.92
648.72	355.01
649.06	354.09
649.41	353.16
649.75	352.27
650.09	351.41
650.43	350.52
650.78	349.60
651.12	348.74
651.46	347.90
651.80	347.07
652.14	346.29
652.49	345.58
652.83	344.80
653.17	344.00
653.51	343.21
653.85	342.55
654.20	341.83
654.54	341.01
654.88	340.24
655.22	339.53
655.56	338.80
655.90	338.10
656.25	337.42
656.59	336.75
656.93	336.12
657.27	335.55
657.61	334.89
657.95	334.28
658.29	333.66
658.64	333.06
658.98	332.40
659.32	331.75
659.66	331.13
660.00	330.57
660.34	330.00
660.68	329.39
661.02	328.71
661.36	328.07
661.70	327.49
662.05	326.92
662.39	326.36
662.73	325.89
663.07	325.46
663.41	324.98
663.75	324.44
664.09	323.91
664.43	323.26
664.77	322.72
665.11	322.14
665.45	321.60
665.79	321.09
666.13	320.56
666.47	320.02
666.81	319.44
667.15	318.82
667.49	318.33
667.83	317.91
668.17	317.44
668.51	317.03
668.85	316.63
669.19	316.28
669.53	315.75
669.87	315.19
670.21	314.62
670.55	314.11
670.89	313.69
671.23	313.23
671.57	312.83
671.91	312.48
672.25	312.13
672.58	311.80
672.92	311.36
673.26	311.01
673.60	310.67
673.94	310.30
674.28	309.97
674.62	309.60
674.96	309.17
675.30	308.80
675.64	308.36
675.97	307.90
676.31	307.41
676.65	307.00
676.99	306.68
677.33	306.25
677.67	305.86
678.01	305.38
678.34	304.98
678.68	304.58
679.02	304.12
679.36	303.68
679.70	303.22
680.04	302.82
680.37	302.41
680.71	302.01
681.05	301.66
681.39	301.24
681.73	300.78
682.06	300.35
682.40	299.95
682.74	299.60
683.08	299.30
683.42	298.92
683.75	298.58
684.09	298.11
684.43	297.74
684.77	297.32
685.10	296.95
685.44	296.54
685.78	296.14
686.12	295.75
686.45	295.33
686.79	294.89
687.13	294.49
687.46	294.04
687.80	293.63
688.14	293.16
688.48	292.74
688.81	292.31
689.15	291.95
689.49	291.50
689.82	291.06
690.16	290.51
690.50	290.07
690.83	289.61
691.17	289.16
691.51	288.72
691.84	288.33
692.18	287.89
692.52	287.43
692.85	286.98
693.19	286.59
693.52	286.17
693.86	285.73
694.20	285.30
694.53	284.86
694.87	284.39
695.21	283.94
695.54	283.49
695.88	283.03
696.21	282.53
696.55	282.09
696.88	281.64
697.22	281.22
697.56	280.80
697.89	280.33
698.23	279.91
698.56	279.46
698.90	279.04
699.23	278.58
699.57	278.18
699.90	277.74
700.24	277.27
700.58	276.86
700.91	276.48
701.25	276.23
701.58	275.91
701.92	275.56
702.25	275.17
702.59	274.76
702.92	274.37
703.26	273.96
703.59	273.54
703.93	273.27
704.26	272.87
704.60	272.45
704.93	272.05
705.26	271.63
705.60	271.27
705.93	270.81
706.27	270.49
706.60	270.14
706.94	269.82
707.27	269.39
707.61	269.00
707.94	268.58
708.27	268.01
708.61	267.54
708.94	267.11
709.28	266.72
709.61	266.33
709.94	265.98
710.28	265.63
710.61	265.30
710.95	264.79
711.28	264.55
711.61	264.19
711.95	263.88
712.28	263.51
712.61	263.14
712.95	262.89
713.28	262.60
713.61	262.21
713.95	261.82
714.28	261.50
714.61	261.14
714.95	260.81
715.28	260.47
715.61	260.16
715.95	259.87
716.28	259.54
716.61	259.26
716.95	258.93
717.28	258.60
717.61	258.28
717.94	257.99
718.28	257.56
718.61	257.25
718.94	256.92
719.27	256.63
719.61	256.36
719.94	256.03
720.27	255.65
720.60	255.37
720.94	255.08
721.27	254.81
721.60	254.57
721.93	254.28
722.27	254.06
722.60	253.78
722.93	253.47
723.26	253.23
723.59	252.93
723.93	252.69
724.26	252.45
724.59	252.19
724.92	251.95
725.25	251.75
725.59	251.51
725.92	251.29
726.25	251.05
726.58	250.80
726.91	250.54
727.24	250.33
727.57	250.08
727.91	249.81
728.24	249.60
728.57	249.35
728.90	249.14
729.23	248.85
729.56	248.72
729.89	248.50
730.22	248.27
730.55	248.05
730.89	247.83
731.22	247.60
731.55	247.39
731.88	247.19
732.21	246.94
732.54	246.72
732.87	246.52
733.20	246.33
733.53	246.14
733.86	245.96
734.19	245.74
734.52	245.58
734.85	245.53
735.18	245.32
735.51	245.20
735.84	245.02
736.17	244.90
736.50	244.62
736.83	244.65
737.16	244.47
737.49	244.30
737.82	244.11
738.15	243.95
738.48	243.77
738.81	243.58
739.14	243.39
739.47	243.20
739.80	243.03
740.13	242.87
740.46	242.67
740.79	242.47
741.12	242.29
741.45	242.08
741.78	241.81
742.11	241.69
742.44	241.47
742.77	241.32
743.10	241.12
743.43	240.95
743.75	240.60
744.08	240.71
744.41	240.53
744.74	240.37
745.07	240.18
745.40	240.08
745.73	240.01
746.06	239.87
746.39	239.76
746.71	239.60
747.04	239.43
747.37	239.29
747.70	239.17
748.03	239.04
748.36	238.94
748.68	238.80
749.01	238.61
749.34	238.49
749.67	238.36
750.00	238.26
750.33	238.26
750.65	238.15
750.98	237.76
751.31	237.64
751.64	237.54
751.97	237.52
752.29	237.37
752.62	237.16
752.95	237.03
753.28	236.88
753.60	236.75
753.93	236.68
754.26	236.58
754.59	236.41
754.91	236.27
755.24	236.13
755.57	236.02
755.90	235.91
756.22	235.76
756.55	235.62
756.88	235.47
757.20	235.24
757.53	235.09
757.86	234.97
758.19	234.88
758.51	234.77
758.84	234.57
759.17	234.45
759.49	234.36
759.82	234.35
760.15	234.27
760.47	234.17
760.80	234.02
761.13	233.94
761.45	233.85
761.78	233.76
762.11	233.68
762.43	233.56
762.76	233.46
763.08	233.40
763.41	233.33
763.74	233.26
764.06	233.17
764.39	233.09
764.71	233.00
765.04	232.89
765.37	232.79
765.69	232.71
766.02	232.63
766.34	232.53
766.67	232.38
767.00	232.33
767.32	232.35
767.65	232.39
767.97	232.31
768.30	232.24
768.62	232.17
768.95	232.08
769.27	232.01
769.60	231.97
769.92	231.87
770.25	231.77
770.57	231.67
770.90	231.60
771.22	231.52
771.55	231.46
771.87	231.42
772.20	231.37
772.52	231.46
772.85	231.62
773.17	231.57
773.50	231.49
773.82	231.41
774.15	231.26
774.47	231.09
774.80	231.01
775.12	230.96
775.45	230.90
775.77	230.86
776.09	230.82
776.42	230.76
776.74	230.77
777.07	230.72
777.39	230.69
777.72	230.62
778.04	230.60
778.36	230.54
778.69	230.49
779.01	230.46
779.33	230.25
779.66	230.00
779.98	229.94
780.31	229.91
780.63	229.95
780.95	229.95
781.28	229.90
781.60	229.86
781.92	229.82
782.25	229.78
782.57	229.74
782.89	229.69
783.22	229.64
783.54	229.56
783.86	229.54
784.19	229.49
784.51	229.51
784.83	229.45
785.16	229.41
785.48	229.38
785.80	229.34
786.12	229.32
786.45	229.29
786.77	229.27
787.09	229.22
787.42	229.13
787.74	229.09
788.06	229.07
788.38	229.03
788.71	228.99
789.03	228.97
789.35	228.95
789.67	228.90
789.99	228.88
790.32	228.84
790.64	228.83
790.96	228.97
791.28	228.88
791.61	228.85
791.93	228.83
792.25	228.80
792.57	228.90
792.89	228.84
793.21	228.82
793.54	228.78
793.86	228.74
794.18	228.71
794.50	228.65
794.82	228.62
795.14	228.62
795.47	228.63
795.79	228.61
796.11	228.55
796.43	228.52
796.75	228.50
797.07	228.49
797.39	228.45
797.71	228.27
798.04	228.26
798.36	228.25
798.68	228.22
799.00	228.20
799.32	228.09
799.64	228.10
799.96	228.08
800.28	228.09
800.60	228.07
800.92	228.06
801.24	228.03
801.56	228.03
801.89	227.99
802.21	227.98
802.53	227.93
802.85	227.95
803.17	228.01
803.49	227.96
803.81	227.93
804.13	227.90
804.45	227.86
804.77	227.85
805.09	227.82
805.41	227.79
805.73	227.74
806.05	227.67
806.37	227.64
806.69	227.61
807.01	227.57
807.33	227.56
807.65	227.48
807.97	227.54
808.28	227.51
808.60	227.48
808.92	227.44
809.24	227.54
809.56	227.48
809.88	227.40
810.20	227.40
810.52	227.41
810.84	227.37
811.16	227.34
811.48	227.31
811.80	227.37
812.12	227.35
812.43	227.38
812.75	227.37
813.07	227.34
813.39	227.34
813.71	227.30
814.03	227.27
814.35	227.27
814.67	227.18
814.98	227.15
815.30	227.14
815.62	227.10
815.94	226.97
816.26	226.98
816.58	226.93
816.89	226.93
817.21	226.87
817.53	226.87
817.85	226.87
818.17	226.85
818.48	226.76
818.80	226.79
819.12	226.74
819.44	226.70
819.76	226.67
820.07	226.66
820.39	226.65
820.71	226.65
821.03	226.64
821.34	226.61
821.66	226.62
821.98	226.62
822.30	226.61
822.61	226.72
822.93	226.67
823.25	226.66
823.57	226.63
823.88	226.65
824.20	226.63
824.52	226.65
824.83	226.63
825.15	226.61
825.47	226.58
825.79	226.59
826.10	226.57
826.42	226.56
826.74	226.56
827.05	226.54
827.37	226.54
827.69	226.52
828.00	226.53
828.32	226.51
828.64	226.48
828.95	226.58
829.27	226.50
829.58	226.49
829.90	226.52
830.22	226.52
830.53	226.49
830.85	226.46
831.17	226.40
831.48	226.39
831.80	226.40
832.11	226.38
832.43	226.34
832.75	226.33
833.06	226.43
833.38	226.38
833.69	226.37
834.01	226.36
834.32	226.35
834.64	226.33
834.96	226.33
835.27	226.32
835.59	226.25
835.90	226.22
836.22	226.21
836.53	226.16
836.85	226.14
837.16	226.32
837.48	226.32
837.79	226.39
838.11	226.39
838.42	226.38
838.74	226.39
839.05	226.38
839.37	226.37
839.68	226.25
840.00	226.25
840.31	226.27
840.63	226.25
840.94	226.23
841.26	226.20
841.57	226.20
841.88	226.21
842.20	226.18
842.51	226.14
842.83	226.14
843.14	226.30
843.46	226.29
843.77	226.17
844.08	226.15
844.40	226.09
844.71	226.07
845.03	226.05
845.34	226.03
845.65	226.03
845.97	226.03
846.28	226.03
846.60	226.04
846.91	226.01
847.22	226.00
847.54	226.03
847.85	226.04
848.16	226.02
848.48	225.98
848.79	226.05
849.10	226.07
849.42	226.07
849.73	225.89
850.04	225.90
850.36	225.83
850.67	225.86
850.98	225.86
851.30	225.88
851.61	225.87
851.92	225.87
852.23	225.92
852.55	225.93
852.86	225.92
853.17	225.93
853.49	225.97
853.80	226.00
854.11	226.01
854.42	226.03
854.74	226.01
855.05	226.02
855.36	225.92
855.67	225.92
855.99	225.93
856.30	226.14
856.61	226.13
856.92	226.13
857.23	226.13
857.55	226.11
857.86	226.08
858.17	226.11
858.48	226.08
858.79	226.04
859.11	226.05
859.42	226.04
859.73	226.01
860.04	226.00
860.35	225.94
860.66	225.88
860.98	225.87
861.29	225.89
861.60	225.88
861.91	225.92
862.22	225.89
862.53	225.85
862.84	225.64
863.16	225.67
863.47	225.64
863.78	225.61
864.09	225.63
864.40	225.64
864.71	225.64
865.02	225.66
865.33	225.63
865.64	225.59
865.95	225.60
866.27	225.71
866.58	225.69
866.89	225.72
867.20	225.72
867.51	225.68
867.82	225.67
868.13	225.73
868.44	225.69
868.75	225.72
869.06	225.74
869.37	225.76
869.68	225.71
869.99	225.74
870.30	225.75
870.61	225.78
870.92	225.75
871.23	225.73
871.54	225.75
871.85	225.80
872.16	225.82
872.47	225.81
872.78	225.71
873.09	225.73
873.40	225.71
873.71	225.72
874.02	225.73
874.33	225.71
874.64	225.66
874.95	225.70
875.26	225.66
875.56	225.65
875.87	225.64
876.18	225.64
876.49	225.82
876.80	225.80
877.11	225.76
877.42	225.77
877.73	225.78
878.04	225.74
878.35	225.73
878.66	225.73
878.96	225.73
879.27	225.73
879.58	225.71
879.89	225.70
880.20	225.75
880.51	225.74
880.82	225.75
881.12	225.75
881.43	225.71
881.74	225.69
882.05	225.68
882.36	225.70
882.67	225.71
882.97	225.50
883.28	225.49
883.59	225.49
883.90	225.50
884.21	225.52
884.51	225.52
884.82	225.49
885.13	225.48
885.44	225.48
885.74	225.48
886.05	225.47
886.36	225.48
886.67	225.41
886.98	225.50
887.28	225.52
887.59	225.52
887.90	225.53
888.20	225.52
888.51	225.56
888.82	225.53
889.13	225.54
889.43	225.70
889.74	225.69
890.05	225.68
890.35	225.66
890.66	225.62
890.97	225.60
891.28	225.59
891.58	225.59
891.89	225.59
892.20	225.57
892.50	225.56
892.81	225.55
893.12	225.55
893.42	225.45
893.73	225.46
894.04	225.45
894.34	225.46
894.65	225.45
894.95	225.43
895.26	225.44
895.57	225.51
895.87	225.33
896.18	225.36
896.48	225.38
896.79	225.37
897.10	225.40
897.40	225.42
897.71	225.44
898.01	225.42
898.32	225.44
898.63	225.44
898.93	225.45
899.24	225.45
899.54	225.45
899.85	225.44
900.15	225.43
900.46	225.43
900.76	225.44
901.07	225.44
901.38	225.44
901.68	225.46
901.99	225.36
902.29	225.38
902.60	225.36
902.90	225.34
903.21	225.34
903.51	225.32
903.82	225.36
904.12	225.35
904.43	225.36
904.73	225.35
905.03	225.36
905.34	225.53
905.64	225.52
905.95	225.52
906.25	225.51
906.56	225.51
906.86	225.51
907.17	225.49
907.47	225.50
907.77	225.49
908.08	225.45
908.38	225.46
908.69	225.47
908.99	225.50
909.30	225.51
909.60	225.51
909.90	225.51
910.21	225.45
910.51	225.43
910.81	225.42
911.12	225.43
911.42	225.44
911.73	225.24
912.03	225.26
912.33	225.30
912.64	225.29
912.94	225.28
913.24	225.25
913.55	225.23
913.85	225.22
914.15	225.25
914.46	225.27
914.76	225.25
915.06	225.24
915.37	225.20
915.67	225.19
915.97	225.19
916.27	225.17
916.58	225.18
916.88	225.18
917.18	225.16
917.49	225.28
917.79	225.27
918.09	225.30
918.39	225.34
918.70	225.32
919.00	225.33
919.30	225.41
919.60	225.41
919.91	225.39
920.21	225.39
920.51	225.36
920.81	225.35
921.12	225.38
921.42	225.37
921.72	225.39
922.02	225.39
922.32	225.42
922.63	225.43
922.93	225.53
923.23	225.54
923.53	225.53
923.83	225.41
924.13	225.43
924.44	225.42
924.74	225.44
925.04	225.48
925.34	225.48
925.64	225.40
925.94	225.40
926.24	225.51
926.55	225.49
926.85	225.52
927.15	225.52
927.45	225.51
927.75	225.50
928.05	225.51
928.35	225.49
928.65	225.52
928.95	225.53
929.26	225.44
929.56	225.47
929.86	225.50
930.16	225.48
930.46	225.46
930.76	225.47
931.06	225.38
931.36	225.33
931.66	225.35
931.96	225.38
932.26	225.39
932.56	225.31
932.86	225.32
933.16	225.32
933.46	225.30
933.76	225.27
934.06	225.31
934.36	225.37
934.66	225.36
934.96	225.33
935.26	225.33
935.56	225.36
935.86	225.31
936.16	225.28
936.46	225.27
936.76	225.26
937.06	225.23
937.36	225.25
937.66	225.26
937.96	225.25
938.26	225.22
938.56	225.20
938.86	225.21
939.16	225.25
939.46	225.26
939.76	225.28
940.06	225.28
940.35	225.25
940.65	225.15
940.95	225.16
941.25	225.12
941.55	225.10
941.85	225.09
942.15	225.13
942.45	225.18
942.75	225.18
943.04	225.19
943.34	225.23
943.64	225.20
943.94	225.18
944.24	225.18
944.54	225.19
944.84	225.19
945.13	225.16
945.43	225.13
945.73	225.12
946.03	225.10
946.33	225.09
946.62	225.07
946.92	225.08
947.22	225.09
947.52	225.11
947.82	225.13
948.11	225.11
948.41	225.07
948.71	225.02
949.01	225.04
949.31	225.02
949.60	225.00
949.90	225.04
950.20	225.03
950.50	225.02
950.79	225.01
951.09	225.03
951.39	225.03
951.69	225.01
951.98	225.05
952.28	225.06
952.58	225.06
952.87	225.07
953.17	225.09
953.47	225.07
953.76	225.06
954.06	225.03
954.36	225.02
954.66	225.01
954.95	225.06
955.25	225.07
955.55	225.09
955.84	225.06
956.14	225.07
956.44	225.09
956.73	225.06
957.03	225.07
957.32	225.07
957.62	225.07
957.92	225.11
958.21	225.09
958.51	225.29
958.81	225.32
959.10	225.33
959.40	225.37
959.69	225.39
959.99	225.41
960.29	225.41
960.58	225.41
960.88	225.48
961.17	225.45
961.47	225.47
961.76	225.45
962.06	225.48
962.36	225.46
962.65	225.47
962.95	225.48
963.24	225.46
963.54	225.46
963.83	225.47
964.13	225.46
964.42	225.44
964.72	225.29
965.01	225.29
965.31	225.28
965.60	225.22
965.90	225.33
966.19	225.29
966.49	225.30
966.78	225.30
967.08	225.28
967.37	225.29
967.67	225.24
967.96	225.28
968.26	225.28
968.55	225.30
968.85	225.29
969.14	225.29
969.43	225.29
969.73	225.28
970.02	225.27
970.32	225.25
970.61	225.23
970.91	225.18
971.20	225.15
971.49	225.13
971.79	225.16
972.08	225.03
972.38	225.05
972.67	225.04
972.96	225.07
973.26	225.03
973.55	225.08
973.85	225.08
974.14	225.06
974.43	225.07
974.73	225.04
975.02	225.03
975.31	225.03
975.61	225.03
975.90	225.01
976.19	225.00
976.49	225.01
976.78	225.02
977.07	225.03
977.37	225.04
977.66	225.06
977.95	225.04
978.24	225.05
978.54	225.08
978.83	225.07
979.12	225.06
979.42	225.06
979.71	225.02
980.00	225.02
980.29	225.03
980.59	224.99
980.88	225.04
981.17	225.03
981.46	225.04
981.76	225.03
982.05	225.09
982.34	225.10
982.63	225.10
982.93	225.10
983.22	225.15
983.51	225.16
983.80	225.18
984.09	225.21
984.39	225.20
984.68	225.17
984.97	225.18
985.26	225.17
985.55	225.19
985.85	225.15
986.14	225.18
986.43	225.20
986.72	225.19
987.01	225.14
987.30	225.14
987.59	225.13
987.89	225.14
988.18	225.09
988.47	225.07
988.76	225.05
989.05	225.04
989.34	225.00
989.63	225.05
989.92	225.02
990.22	224.99
990.51	224.98
990.80	224.97
991.09	224.98
991.38	225.01
991.67	224.99
991.96	224.98
992.25	224.98
992.54	224.94
992.83	224.95
993.12	224.94
993.41	224.97
993.70	225.04
993.99	225.07
994.28	225.10
994.58	225.13
994.87	225.12
995.16	225.12
995.45	225.10
995.74	225.04
996.03	225.06
996.32	225.09
996.61	225.13
996.90	225.13
997.19	225.12
997.48	225.12
997.77	225.11
998.06	225.13
998.34	225.11
998.63	225.12
998.92	225.13
999.21	225.16
999.50	225.16
999.79	225.09
1000.08	225.08
1000.37	225.08
1000.66	225.05
1000.95	225.10
1001.24	225.11
1001.53	225.14
1001.82	225.14
1002.11	225.10
1002.40	225.11
1002.68	225.14
1002.97	225.27
1003.26	225.25
1003.55	225.22
1003.84	225.24
1004.13	225.30
1004.42	225.29
1004.71	225.29
1004.99	225.27
1005.28	225.31
1005.57	225.30
1005.86	225.28
1006.15	225.27
1006.44	225.24
1006.72	225.26
1007.01	225.23
1007.30	225.23
1007.59	225.21
1007.88	225.20
1008.17	225.22
1008.45	225.17
1008.74	225.10
1009.03	225.00
1009.32	225.01
1009.60	225.01
1009.89	224.99
1010.18	224.91
1010.47	224.90
1010.76	224.90
1011.04	224.90
1011.33	224.89
1011.62	224.90
1011.91	224.92
1012.19	224.93
1012.48	224.93
1012.77	224.93
1013.05	224.99
1013.34	225.00
1013.63	224.99
1013.92	225.00
1014.20	224.99
1014.49	225.00
1014.78	225.03
1015.06	224.97
1015.35	224.97
1015.64	225.00
1015.92	225.03
1016.21	225.04
1016.50	225.05
1016.78	225.07
1017.07	225.09
1017.36	225.06
1017.64	225.03
1017.93	225.04
1018.22	225.03
1018.50	225.03
1018.79	225.02
1019.08	224.95
1019.36	224.96
1019.65	224.94
1019.93	224.99
1020.22	225.02
1020.51	225.12
1020.79	225.09
1021.08	224.77
1021.36	224.79
1021.65	224.96
1021.94	224.91
1022.22	225.08
1022.51	224.63
1022.79	225.91
1023.08	225.29
1023.36	227.22
1023.65	224.63
>>>>>End Processed Spectral Data<<<<<
