SpectraSuite Data File
++++++++++++++++++++++++++++++++++++
Date: Tue Oct 06 20:57:49 EDT 2015
User: lab3
Dark Spectrum Present: No
Reference Spectrum Present: No
Number of Sampled Component Spectra: 1
Spectrometers: USB2E7196
Integration Time (usec): 66000 (USB2E7196)
Spectra Averaged: 5000 (USB2E7196)
Boxcar Smoothing: 10 (USB2E7196)
Correct for Electrical Dark: No (USB2E7196)
Strobe/Lamp Enabled: No (USB2E7196)
Correct for Detector Non-linearity: No (USB2E7196)
Correct for Stray Light: No (USB2E7196)
Number of Pixels in Processed Spectrum: 2048
>>>>>Begin Processed Spectral Data<<<<<
339.09	0.00
339.48	214.00
339.86	215.49
340.24	216.80
340.63	218.25
341.01	222.25
341.39	221.01
341.78	222.52
342.16	223.75
342.54	224.06
342.93	212.55
343.31	223.29
343.69	223.82
344.07	224.29
344.46	224.73
344.84	225.14
345.22	225.34
345.60	225.62
345.99	225.82
346.37	225.96
346.75	226.08
347.13	226.17
347.52	226.27
347.90	226.39
348.28	226.44
348.66	226.53
349.05	226.52
349.43	226.60
349.81	226.67
350.19	226.74
350.57	226.82
350.96	226.93
351.34	227.04
351.72	227.15
352.10	227.27
352.48	227.34
352.87	227.39
353.25	227.46
353.63	227.52
354.01	227.58
354.39	227.66
354.77	227.73
355.15	227.85
355.54	227.89
355.92	227.89
356.30	227.97
356.68	228.15
357.06	228.23
357.44	228.26
357.82	228.32
358.20	228.53
358.58	228.59
358.97	228.65
359.35	228.74
359.73	228.84
360.11	228.89
360.49	228.95
360.87	229.00
361.25	229.07
361.63	229.17
362.01	229.23
362.39	229.25
362.77	229.31
363.15	229.33
363.53	229.37
363.91	229.41
364.29	229.43
364.67	229.28
365.05	229.30
365.43	229.34
365.81	229.38
366.19	229.33
366.57	229.41
366.95	229.41
367.33	229.37
367.71	229.36
368.09	229.40
368.47	229.39
368.85	229.38
369.23	229.40
369.61	229.33
369.99	229.36
370.37	229.37
370.75	229.49
371.13	229.45
371.51	229.41
371.89	229.40
372.27	229.38
372.65	229.37
373.03	229.33
373.41	229.29
373.78	229.24
374.16	229.11
374.54	229.01
374.92	228.96
375.30	228.92
375.68	228.85
376.06	228.80
376.44	228.75
376.82	228.71
377.19	228.67
377.57	228.62
377.95	228.51
378.33	228.44
378.71	228.23
379.09	228.20
379.47	228.17
379.84	228.10
380.22	228.04
380.60	227.96
380.98	227.91
381.36	227.86
381.73	227.81
382.11	227.80
382.49	227.76
382.87	227.70
383.25	227.66
383.62	227.83
384.00	227.76
384.38	227.74
384.76	227.73
385.13	227.75
385.51	227.72
385.89	227.67
386.27	227.64
386.64	227.64
387.02	227.59
387.40	227.55
387.78	227.53
388.15	227.51
388.53	227.49
388.91	227.47
389.29	227.43
389.66	227.44
390.04	227.39
390.42	227.40
390.79	227.40
391.17	227.39
391.55	227.18
391.92	227.17
392.30	227.19
392.68	227.15
393.05	227.12
393.43	227.13
393.81	227.15
394.18	227.14
394.56	227.15
394.94	227.21
395.31	227.22
395.69	227.30
396.06	227.35
396.44	227.39
396.82	227.42
397.19	227.55
397.57	227.58
397.95	227.65
398.32	227.65
398.70	227.73
399.07	227.82
399.45	227.88
399.82	227.95
400.20	228.00
400.58	228.09
400.95	228.11
401.33	228.24
401.70	228.47
402.08	228.61
402.45	228.74
402.83	228.91
403.20	229.08
403.58	229.21
403.95	229.42
404.33	229.64
404.71	229.85
405.08	230.16
405.46	230.40
405.83	230.68
406.21	230.97
406.58	231.29
406.96	231.61
407.33	231.98
407.70	232.40
408.08	232.98
408.45	233.48
408.83	234.02
409.20	234.52
409.58	234.97
409.95	235.59
410.33	236.26
410.70	236.90
411.08	237.64
411.45	238.44
411.82	239.24
412.20	240.17
412.57	241.26
412.95	242.13
413.32	243.27
413.69	244.43
414.07	245.67
414.44	247.02
414.82	248.40
415.19	250.02
415.56	251.67
415.94	253.38
416.31	255.30
416.68	257.23
417.06	259.46
417.43	261.55
417.81	263.96
418.18	266.42
418.55	269.09
418.93	271.88
419.30	274.79
419.67	277.88
420.04	281.06
420.42	284.38
420.79	288.20
421.16	292.06
421.54	295.98
421.91	300.07
422.28	304.33
422.66	308.90
423.03	313.25
423.40	317.81
423.77	322.69
424.15	327.69
424.52	332.86
424.89	338.46
425.26	344.01
425.64	349.17
426.01	354.95
426.38	360.86
426.75	366.94
427.13	373.15
427.50	379.66
427.87	386.41
428.24	393.22
428.61	399.72
428.99	406.74
429.36	414.45
429.73	421.81
430.10	429.14
430.47	436.66
430.85	444.41
431.22	452.67
431.59	461.14
431.96	469.41
432.33	478.62
432.70	487.35
433.08	497.72
433.45	507.48
433.82	517.14
434.19	527.96
434.56	538.60
434.93	548.93
435.30	559.17
435.68	570.79
436.05	582.13
436.42	593.51
436.79	603.90
437.16	615.20
437.53	627.28
437.90	639.36
438.27	651.23
438.64	664.05
439.01	675.71
439.38	686.40
439.75	696.76
440.13	708.56
440.50	719.77
440.87	728.75
441.24	738.64
441.61	749.46
441.98	757.48
442.35	767.03
442.72	776.76
443.09	786.02
443.46	792.10
443.83	796.74
444.20	800.63
444.57	806.20
444.94	809.58
445.31	813.07
445.68	816.10
446.05	818.43
446.42	818.33
446.79	817.96
447.16	817.72
447.53	817.53
447.90	814.25
448.27	811.16
448.64	806.13
449.01	802.73
449.37	795.44
449.74	788.81
450.11	780.18
450.48	770.68
450.85	761.12
451.22	752.93
451.59	744.85
451.96	737.54
452.33	726.90
452.70	717.43
453.07	705.91
453.43	694.40
453.80	683.16
454.17	672.38
454.54	662.43
454.91	651.18
455.28	640.53
455.65	630.48
456.02	619.83
456.38	611.24
456.75	600.26
457.12	591.39
457.49	582.46
457.86	573.98
458.23	566.50
458.59	558.28
458.96	549.85
459.33	542.43
459.70	534.88
460.07	529.11
460.43	522.32
460.80	515.96
461.17	510.44
461.54	504.46
461.91	498.83
462.27	493.13
462.64	488.45
463.01	483.14
463.38	477.77
463.74	472.92
464.11	468.61
464.48	464.71
464.85	460.51
465.21	457.30
465.58	453.72
465.95	449.68
466.32	446.46
466.68	443.30
467.05	440.12
467.42	437.02
467.78	433.71
468.15	430.65
468.52	428.41
468.88	425.42
469.25	422.73
469.62	420.58
469.98	418.26
470.35	416.19
470.72	414.30
471.08	412.41
471.45	410.81
471.82	409.04
472.18	407.17
472.55	405.95
472.92	404.43
473.28	403.25
473.65	401.98
474.02	400.76
474.38	399.73
474.75	399.11
475.11	398.27
475.48	397.87
475.85	397.43
476.21	397.17
476.58	396.99
476.94	397.14
477.31	397.16
477.67	397.21
478.04	397.49
478.41	397.89
478.77	398.47
479.14	398.82
479.50	399.58
479.87	400.54
480.23	401.49
480.60	402.39
480.96	403.30
481.33	404.69
481.69	406.06
482.06	407.41
482.42	408.64
482.79	410.19
483.15	412.01
483.52	414.07
483.88	416.01
484.25	418.08
484.61	420.26
484.98	422.61
485.34	425.27
485.71	428.05
486.07	431.01
486.44	433.92
486.80	437.22
487.17	440.58
487.53	444.25
487.90	448.08
488.26	452.27
488.62	456.68
488.99	461.07
489.35	465.69
489.72	470.66
490.08	475.88
490.44	481.22
490.81	486.79
491.17	492.51
491.54	498.65
491.90	504.92
492.26	511.62
492.63	518.66
492.99	525.99
493.36	533.48
493.72	541.37
494.08	549.46
494.45	557.94
494.81	566.81
495.17	575.94
495.54	585.57
495.90	595.61
496.26	605.85
496.63	616.41
496.99	627.34
497.35	638.78
497.72	650.52
498.08	662.58
498.44	674.97
498.80	688.04
499.17	701.41
499.53	715.25
499.89	729.52
500.26	744.00
500.62	758.83
500.98	774.53
501.34	790.25
501.71	806.75
502.07	823.58
502.43	840.86
502.79	858.35
503.16	876.35
503.52	894.57
503.88	913.21
504.24	932.30
504.60	951.65
504.97	971.65
505.33	992.13
505.69	1013.67
506.05	1035.46
506.41	1057.20
506.78	1079.09
507.14	1101.54
507.50	1124.49
507.86	1147.81
508.22	1171.40
508.59	1194.88
508.95	1219.37
509.31	1244.43
509.67	1270.10
510.03	1295.73
510.39	1321.29
510.75	1346.96
511.12	1373.00
511.48	1399.33
511.84	1425.62
512.20	1452.26
512.56	1480.00
512.92	1507.58
513.28	1534.54
513.64	1561.94
514.00	1589.73
514.37	1617.82
514.73	1645.95
515.09	1673.42
515.45	1701.21
515.81	1729.23
516.17	1757.07
516.53	1784.25
516.89	1811.16
517.25	1838.42
517.61	1865.47
517.97	1893.23
518.33	1920.41
518.69	1947.53
519.05	1975.02
519.41	2002.71
519.77	2030.53
520.13	2056.75
520.49	2083.02
520.85	2109.70
521.21	2135.78
521.57	2162.20
521.93	2187.54
522.29	2213.59
522.65	2239.47
523.01	2265.11
523.37	2290.00
523.73	2315.61
524.09	2340.95
524.45	2366.10
524.81	2390.58
525.17	2415.00
525.53	2438.50
525.89	2462.48
526.25	2486.12
526.61	2508.04
526.97	2530.10
527.33	2551.90
527.68	2573.62
528.04	2594.96
528.40	2615.11
528.76	2635.37
529.12	2655.11
529.48	2675.59
529.84	2693.27
530.20	2711.37
530.56	2728.66
530.91	2746.18
531.27	2762.98
531.63	2778.95
531.99	2794.57
532.35	2809.99
532.71	2824.93
533.07	2840.28
533.42	2853.68
533.78	2867.22
534.14	2881.95
534.50	2895.44
534.86	2909.46
535.21	2921.21
535.57	2932.81
535.93	2944.18
536.29	2953.71
536.65	2963.16
537.00	2971.20
537.36	2980.55
537.72	2988.99
538.08	2996.97
538.44	3003.61
538.79	3010.08
539.15	3015.19
539.51	3019.50
539.87	3022.54
540.22	3023.95
540.58	3025.66
540.94	3028.07
541.29	3029.41
541.65	3029.33
542.01	3028.85
542.37	3026.67
542.72	3026.21
543.08	3023.94
543.44	3021.82
543.79	3019.56
544.15	3016.37
544.51	3013.22
544.87	3009.14
545.22	3003.98
545.58	2998.52
545.94	2993.35
546.29	2986.68
546.65	2980.15
547.01	2973.85
547.36	2968.11
547.72	2962.44
548.07	2955.02
548.43	2946.42
548.79	2937.53
549.14	2928.81
549.50	2920.22
549.86	2910.69
550.21	2899.41
550.57	2889.46
550.92	2877.65
551.28	2866.09
551.64	2854.98
551.99	2843.54
552.35	2831.60
552.70	2819.58
553.06	2808.01
553.41	2796.01
553.77	2783.74
554.13	2771.48
554.48	2757.94
554.84	2743.31
555.19	2729.27
555.55	2715.13
555.90	2701.55
556.26	2688.18
556.61	2673.73
556.97	2658.17
557.32	2643.07
557.68	2628.35
558.03	2613.19
558.39	2599.08
558.74	2585.61
559.10	2570.15
559.45	2554.68
559.81	2539.93
560.16	2524.81
560.52	2509.38
560.87	2494.19
561.23	2478.52
561.58	2463.53
561.94	2448.10
562.29	2432.20
562.64	2416.40
563.00	2400.67
563.35	2385.08
563.71	2369.12
564.06	2353.29
564.42	2337.95
564.77	2322.74
565.12	2307.14
565.48	2291.24
565.83	2275.50
566.19	2259.68
566.54	2244.09
566.89	2228.09
567.25	2212.03
567.60	2196.77
567.96	2180.87
568.31	2163.49
568.66	2147.07
569.02	2131.18
569.37	2115.88
569.72	2101.19
570.08	2086.00
570.43	2070.19
570.78	2054.15
571.14	2038.00
571.49	2021.80
571.84	2005.94
572.20	1988.77
572.55	1972.41
572.90	1956.18
573.26	1940.02
573.61	1923.17
573.96	1906.85
574.31	1890.38
574.67	1873.58
575.02	1856.51
575.37	1839.45
575.72	1823.29
576.08	1806.78
576.43	1789.43
576.78	1772.38
577.13	1755.55
577.49	1738.94
577.84	1722.84
578.19	1706.29
578.54	1689.72
578.90	1673.03
579.25	1656.15
579.60	1640.63
579.95	1624.78
580.30	1608.86
580.66	1592.62
581.01	1576.50
581.36	1560.45
581.71	1545.29
582.06	1530.15
582.42	1514.78
582.77	1499.88
583.12	1485.19
583.47	1470.56
583.82	1456.12
584.17	1441.07
584.53	1426.11
584.88	1411.52
585.23	1396.74
585.58	1382.39
585.93	1367.87
586.28	1354.46
586.63	1340.90
586.98	1326.80
587.34	1313.15
587.69	1299.32
588.04	1285.82
588.39	1272.62
588.74	1259.02
589.09	1245.53
589.44	1231.74
589.79	1218.59
590.14	1205.45
590.49	1192.36
590.84	1179.51
591.19	1167.05
591.54	1154.74
591.89	1142.00
592.25	1129.58
592.60	1117.06
592.95	1104.66
593.30	1092.74
593.65	1080.48
594.00	1068.51
594.35	1057.49
594.70	1045.72
595.05	1034.59
595.40	1023.31
595.75	1011.87
596.10	1001.09
596.45	990.27
596.80	979.89
597.15	969.45
597.50	959.01
597.85	948.88
598.19	938.77
598.54	928.60
598.89	919.01
599.24	909.81
599.59	900.38
599.94	891.67
600.29	882.95
600.64	874.00
600.99	864.93
601.34	856.22
601.69	846.97
602.04	838.69
602.39	830.29
602.74	822.10
603.08	814.04
603.43	805.95
603.78	797.88
604.13	789.87
604.48	781.89
604.83	774.17
605.18	766.49
605.53	759.00
605.87	751.46
606.22	744.04
606.57	736.55
606.92	729.01
607.27	721.47
607.62	714.16
607.96	707.11
608.31	700.61
608.66	693.96
609.01	687.61
609.36	681.20
609.70	674.76
610.05	668.30
610.40	662.08
610.75	655.81
611.10	649.78
611.44	643.75
611.79	637.86
612.14	631.88
612.49	625.99
612.83	620.40
613.18	614.89
613.53	609.36
613.88	603.97
614.22	598.97
614.57	593.89
614.92	588.92
615.27	584.08
615.61	579.10
615.96	574.18
616.31	569.27
616.65	564.51
617.00	559.87
617.35	555.34
617.70	550.80
618.04	546.38
618.39	542.07
618.74	538.03
619.08	533.94
619.43	530.01
619.78	526.02
620.12	521.98
620.47	518.18
620.82	514.49
621.16	510.82
621.51	507.19
621.85	503.56
622.20	500.01
622.55	496.44
622.89	492.92
623.24	489.62
623.59	486.35
623.93	483.18
624.28	480.15
624.62	477.28
624.97	474.45
625.32	471.54
625.66	468.60
626.01	465.62
626.35	462.84
626.70	459.97
627.04	457.31
627.39	454.63
627.73	452.01
628.08	449.44
628.43	446.90
628.77	444.30
629.12	441.81
629.46	439.44
629.81	437.21
630.15	434.90
630.50	432.61
630.84	430.38
631.19	428.18
631.53	426.09
631.88	423.82
632.22	421.65
632.57	419.78
632.91	417.86
633.26	416.02
633.60	414.19
633.95	412.46
634.29	410.60
634.64	408.81
634.98	406.91
635.32	405.18
635.67	403.62
636.01	402.05
636.36	400.54
636.70	399.09
637.05	397.49
637.39	396.06
637.73	394.62
638.08	393.25
638.42	391.92
638.77	390.45
639.11	388.96
639.45	387.52
639.80	386.03
640.14	384.63
640.49	383.23
640.83	381.82
641.17	380.47
641.52	379.16
641.86	377.88
642.20	376.75
642.55	375.45
642.89	374.15
643.23	372.93
643.58	371.85
643.92	370.60
644.26	369.45
644.61	368.34
644.95	367.18
645.29	365.97
645.64	364.73
645.98	363.62
646.32	362.64
646.66	361.58
647.01	360.56
647.35	359.63
647.69	358.66
648.04	357.76
648.38	356.80
648.72	355.89
649.06	354.97
649.41	354.03
649.75	353.14
650.09	352.30
650.43	351.41
650.78	350.48
651.12	349.63
651.46	348.78
651.80	347.95
652.14	347.18
652.49	346.46
652.83	345.70
653.17	344.88
653.51	344.09
653.85	343.43
654.20	342.71
654.54	341.89
654.88	341.12
655.22	340.41
655.56	339.68
655.90	338.98
656.25	338.29
656.59	337.62
656.93	336.98
657.27	336.38
657.61	335.72
657.95	335.12
658.29	334.49
658.64	333.88
658.98	333.23
659.32	332.57
659.66	331.95
660.00	331.39
660.34	330.83
660.68	330.21
661.02	329.53
661.36	328.90
661.70	328.32
662.05	327.75
662.39	327.18
662.73	326.69
663.07	326.25
663.41	325.77
663.75	325.23
664.09	324.70
664.43	324.05
664.77	323.50
665.11	322.91
665.45	322.36
665.79	321.85
666.13	321.31
666.47	320.77
666.81	320.19
667.15	319.58
667.49	319.09
667.83	318.66
668.17	318.20
668.51	317.78
668.85	317.37
669.19	317.01
669.53	316.46
669.87	315.92
670.21	315.35
670.55	314.83
670.89	314.42
671.23	313.96
671.57	313.57
671.91	313.22
672.25	312.89
672.58	312.55
672.92	312.12
673.26	311.77
673.60	311.42
673.94	311.05
674.28	310.72
674.62	310.35
674.96	309.91
675.30	309.53
675.64	309.09
675.97	308.64
676.31	308.16
676.65	307.75
676.99	307.41
677.33	306.98
677.67	306.59
678.01	306.11
678.34	305.69
678.68	305.30
679.02	304.85
679.36	304.40
679.70	303.94
680.04	303.54
680.37	303.13
680.71	302.74
681.05	302.38
681.39	301.96
681.73	301.50
682.06	301.08
682.40	300.68
682.74	300.32
683.08	300.02
683.42	299.65
683.75	299.32
684.09	298.86
684.43	298.48
684.77	298.06
685.10	297.68
685.44	297.28
685.78	296.87
686.12	296.47
686.45	296.05
686.79	295.61
687.13	295.20
687.46	294.75
687.80	294.34
688.14	293.86
688.48	293.44
688.81	293.03
689.15	292.67
689.49	292.22
689.82	291.78
690.16	291.23
690.50	290.78
690.83	290.32
691.17	289.86
691.51	289.43
691.84	289.04
692.18	288.60
692.52	288.14
692.85	287.70
693.19	287.32
693.52	286.89
693.86	286.45
694.20	286.02
694.53	285.59
694.87	285.12
695.21	284.67
695.54	284.22
695.88	283.76
696.21	283.26
696.55	282.81
696.88	282.36
697.22	281.93
697.56	281.53
697.89	281.05
698.23	280.63
698.56	280.18
698.90	279.77
699.23	279.30
699.57	278.90
699.90	278.46
700.24	277.99
700.58	277.59
700.91	277.23
701.25	276.97
701.58	276.65
701.92	276.30
702.25	275.92
702.59	275.50
702.92	275.11
703.26	274.70
703.59	274.28
703.93	274.02
704.26	273.63
704.60	273.21
704.93	272.80
705.26	272.38
705.60	272.03
705.93	271.58
706.27	271.26
706.60	270.91
706.94	270.59
707.27	270.16
707.61	269.78
707.94	269.35
708.27	268.79
708.61	268.32
708.94	267.89
709.28	267.49
709.61	267.11
709.94	266.76
710.28	266.41
710.61	266.08
710.95	265.56
711.28	265.32
711.61	264.96
711.95	264.65
712.28	264.28
712.61	263.90
712.95	263.65
713.28	263.35
713.61	262.96
713.95	262.57
714.28	262.25
714.61	261.88
714.95	261.55
715.28	261.22
715.61	260.91
715.95	260.61
716.28	260.29
716.61	260.00
716.95	259.67
717.28	259.35
717.61	259.03
717.94	258.74
718.28	258.31
718.61	258.01
718.94	257.68
719.27	257.39
719.61	257.13
719.94	256.79
720.27	256.42
720.60	256.14
720.94	255.86
721.27	255.59
721.60	255.34
721.93	255.06
722.27	254.83
722.60	254.55
722.93	254.25
723.26	254.00
723.59	253.69
723.93	253.45
724.26	253.21
724.59	252.95
724.92	252.71
725.25	252.52
725.59	252.27
725.92	252.05
726.25	251.81
726.58	251.57
726.91	251.31
727.24	251.09
727.57	250.84
727.91	250.58
728.24	250.37
728.57	250.12
728.90	249.91
729.23	249.62
729.56	249.49
729.89	249.28
730.22	249.05
730.55	248.83
730.89	248.61
731.22	248.39
731.55	248.17
731.88	247.97
732.21	247.73
732.54	247.51
732.87	247.31
733.20	247.13
733.53	246.94
733.86	246.76
734.19	246.54
734.52	246.39
734.85	246.34
735.18	246.13
735.51	246.00
735.84	245.82
736.17	245.70
736.50	245.43
736.83	245.46
737.16	245.27
737.49	245.11
737.82	244.92
738.15	244.76
738.48	244.58
738.81	244.39
739.14	244.20
739.47	244.01
739.80	243.83
740.13	243.67
740.46	243.46
740.79	243.26
741.12	243.08
741.45	242.87
741.78	242.59
742.11	242.46
742.44	242.25
742.77	242.10
743.10	241.91
743.43	241.74
743.75	241.39
744.08	241.50
744.41	241.33
744.74	241.16
745.07	240.97
745.40	240.87
745.73	240.79
746.06	240.65
746.39	240.54
746.71	240.38
747.04	240.22
747.37	240.07
747.70	239.96
748.03	239.83
748.36	239.73
748.68	239.59
749.01	239.41
749.34	239.29
749.67	239.15
750.00	239.05
750.33	239.05
750.65	238.94
750.98	238.55
751.31	238.43
751.64	238.33
751.97	238.31
752.29	238.16
752.62	237.95
752.95	237.82
753.28	237.67
753.60	237.55
753.93	237.47
754.26	237.37
754.59	237.20
754.91	237.06
755.24	236.92
755.57	236.81
755.90	236.70
756.22	236.55
756.55	236.42
756.88	236.26
757.20	236.03
757.53	235.86
757.86	235.75
758.19	235.65
758.51	235.54
758.84	235.34
759.17	235.22
759.49	235.13
759.82	235.11
760.15	235.03
760.47	234.93
760.80	234.78
761.13	234.71
761.45	234.62
761.78	234.53
762.11	234.45
762.43	234.33
762.76	234.23
763.08	234.17
763.41	234.10
763.74	234.03
764.06	233.94
764.39	233.86
764.71	233.77
765.04	233.66
765.37	233.57
765.69	233.48
766.02	233.40
766.34	233.30
766.67	233.15
767.00	233.11
767.32	233.13
767.65	233.18
767.97	233.08
768.30	233.02
768.62	232.95
768.95	232.86
769.27	232.79
769.60	232.75
769.92	232.65
770.25	232.54
770.57	232.44
770.90	232.38
771.22	232.30
771.55	232.25
771.87	232.20
772.20	232.14
772.52	232.24
772.85	232.40
773.17	232.35
773.50	232.28
773.82	232.19
774.15	232.04
774.47	231.87
774.80	231.79
775.12	231.73
775.45	231.67
775.77	231.63
776.09	231.59
776.42	231.54
776.74	231.54
777.07	231.50
777.39	231.46
777.72	231.40
778.04	231.37
778.36	231.31
778.69	231.27
779.01	231.24
779.33	231.04
779.66	230.78
779.98	230.73
780.31	230.70
780.63	230.73
780.95	230.72
781.28	230.68
781.60	230.63
781.92	230.59
782.25	230.55
782.57	230.52
782.89	230.46
783.22	230.41
783.54	230.34
783.86	230.32
784.19	230.27
784.51	230.29
784.83	230.23
785.16	230.19
785.48	230.16
785.80	230.12
786.12	230.10
786.45	230.07
786.77	230.05
787.09	230.00
787.42	229.90
787.74	229.86
788.06	229.85
788.38	229.82
788.71	229.77
789.03	229.74
789.35	229.73
789.67	229.68
789.99	229.66
790.32	229.62
790.64	229.60
790.96	229.76
791.28	229.66
791.61	229.63
791.93	229.61
792.25	229.57
792.57	229.66
792.89	229.60
793.21	229.58
793.54	229.54
793.86	229.50
794.18	229.48
794.50	229.43
794.82	229.39
795.14	229.39
795.47	229.40
795.79	229.38
796.11	229.31
796.43	229.28
796.75	229.25
797.07	229.23
797.39	229.19
797.71	229.00
798.04	228.99
798.36	228.98
798.68	228.95
799.00	228.94
799.32	228.83
799.64	228.84
799.96	228.82
800.28	228.83
800.60	228.80
800.92	228.80
801.24	228.77
801.56	228.76
801.89	228.72
802.21	228.71
802.53	228.65
802.85	228.68
803.17	228.75
803.49	228.69
803.81	228.66
804.13	228.63
804.45	228.59
804.77	228.59
805.09	228.57
805.41	228.53
805.73	228.48
806.05	228.41
806.37	228.38
806.69	228.34
807.01	228.31
807.33	228.31
807.65	228.22
807.97	228.28
808.28	228.24
808.60	228.22
808.92	228.18
809.24	228.28
809.56	228.23
809.88	228.14
810.20	228.14
810.52	228.16
810.84	228.12
811.16	228.09
811.48	228.06
811.80	228.11
812.12	228.10
812.43	228.12
812.75	228.12
813.07	228.09
813.39	228.09
813.71	228.05
814.03	228.01
814.35	228.02
814.67	227.93
814.98	227.91
815.30	227.90
815.62	227.86
815.94	227.72
816.26	227.73
816.58	227.69
816.89	227.69
817.21	227.63
817.53	227.64
817.85	227.64
818.17	227.62
818.48	227.53
818.80	227.55
819.12	227.51
819.44	227.47
819.76	227.43
820.07	227.42
820.39	227.41
820.71	227.41
821.03	227.40
821.34	227.38
821.66	227.39
821.98	227.39
822.30	227.38
822.61	227.48
822.93	227.43
823.25	227.42
823.57	227.39
823.88	227.40
824.20	227.39
824.52	227.41
824.83	227.40
825.15	227.38
825.47	227.35
825.79	227.35
826.10	227.34
826.42	227.33
826.74	227.34
827.05	227.32
827.37	227.32
827.69	227.31
828.00	227.31
828.32	227.30
828.64	227.26
828.95	227.35
829.27	227.29
829.58	227.28
829.90	227.31
830.22	227.32
830.53	227.28
830.85	227.25
831.17	227.20
831.48	227.19
831.80	227.20
832.11	227.18
832.43	227.14
832.75	227.14
833.06	227.24
833.38	227.18
833.69	227.17
834.01	227.17
834.32	227.15
834.64	227.13
834.96	227.12
835.27	227.11
835.59	227.04
835.90	227.01
836.22	226.99
836.53	226.95
836.85	226.92
837.16	227.10
837.48	227.09
837.79	227.14
838.11	227.14
838.42	227.13
838.74	227.15
839.05	227.13
839.37	227.11
839.68	226.99
840.00	226.99
840.31	227.00
840.63	226.98
840.94	226.96
841.26	226.94
841.57	226.93
841.88	226.94
842.20	226.92
842.51	226.89
842.83	226.88
843.14	227.04
843.46	227.03
843.77	226.92
844.08	226.90
844.40	226.84
844.71	226.82
845.03	226.81
845.34	226.79
845.65	226.78
845.97	226.78
846.28	226.79
846.60	226.79
846.91	226.76
847.22	226.75
847.54	226.79
847.85	226.80
848.16	226.78
848.48	226.74
848.79	226.80
849.10	226.83
849.42	226.83
849.73	226.66
850.04	226.66
850.36	226.59
850.67	226.62
850.98	226.63
851.30	226.64
851.61	226.63
851.92	226.63
852.23	226.68
852.55	226.69
852.86	226.69
853.17	226.70
853.49	226.74
853.80	226.77
854.11	226.78
854.42	226.80
854.74	226.77
855.05	226.78
855.36	226.68
855.67	226.68
855.99	226.68
856.30	226.89
856.61	226.88
856.92	226.88
857.23	226.88
857.55	226.86
857.86	226.85
858.17	226.88
858.48	226.84
858.79	226.80
859.11	226.81
859.42	226.80
859.73	226.77
860.04	226.75
860.35	226.70
860.66	226.64
860.98	226.63
861.29	226.66
861.60	226.64
861.91	226.68
862.22	226.65
862.53	226.62
862.84	226.41
863.16	226.44
863.47	226.41
863.78	226.38
864.09	226.39
864.40	226.40
864.71	226.40
865.02	226.42
865.33	226.40
865.64	226.37
865.95	226.37
866.27	226.47
866.58	226.45
866.89	226.48
867.20	226.48
867.51	226.44
867.82	226.42
868.13	226.49
868.44	226.44
868.75	226.48
869.06	226.49
869.37	226.52
869.68	226.47
869.99	226.50
870.30	226.51
870.61	226.53
870.92	226.50
871.23	226.48
871.54	226.50
871.85	226.55
872.16	226.57
872.47	226.55
872.78	226.45
873.09	226.48
873.40	226.45
873.71	226.47
874.02	226.48
874.33	226.47
874.64	226.42
874.95	226.45
875.26	226.41
875.56	226.40
875.87	226.38
876.18	226.38
876.49	226.55
876.80	226.53
877.11	226.50
877.42	226.51
877.73	226.52
878.04	226.48
878.35	226.48
878.66	226.48
878.96	226.48
879.27	226.47
879.58	226.46
879.89	226.45
880.20	226.49
880.51	226.48
880.82	226.49
881.12	226.50
881.43	226.46
881.74	226.44
882.05	226.43
882.36	226.44
882.67	226.46
882.97	226.26
883.28	226.25
883.59	226.24
883.90	226.25
884.21	226.28
884.51	226.27
884.82	226.24
885.13	226.24
885.44	226.23
885.74	226.22
886.05	226.22
886.36	226.22
886.67	226.15
886.98	226.25
887.28	226.26
887.59	226.26
887.90	226.27
888.20	226.26
888.51	226.30
888.82	226.27
889.13	226.28
889.43	226.44
889.74	226.43
890.05	226.43
890.35	226.41
890.66	226.38
890.97	226.36
891.28	226.34
891.58	226.34
891.89	226.34
892.20	226.33
892.50	226.31
892.81	226.31
893.12	226.31
893.42	226.21
893.73	226.22
894.04	226.21
894.34	226.22
894.65	226.23
894.95	226.20
895.26	226.22
895.57	226.29
895.87	226.11
896.18	226.15
896.48	226.16
896.79	226.16
897.10	226.19
897.40	226.21
897.71	226.23
898.01	226.21
898.32	226.23
898.63	226.23
898.93	226.23
899.24	226.24
899.54	226.23
899.85	226.23
900.15	226.22
900.46	226.22
900.76	226.23
901.07	226.22
901.38	226.22
901.68	226.23
901.99	226.14
902.29	226.15
902.60	226.13
902.90	226.12
903.21	226.11
903.51	226.09
903.82	226.12
904.12	226.12
904.43	226.13
904.73	226.12
905.03	226.13
905.34	226.31
905.64	226.29
905.95	226.29
906.25	226.29
906.56	226.28
906.86	226.28
907.17	226.26
907.47	226.27
907.77	226.25
908.08	226.21
908.38	226.22
908.69	226.23
908.99	226.26
909.30	226.27
909.60	226.28
909.90	226.27
910.21	226.22
910.51	226.19
910.81	226.19
911.12	226.20
911.42	226.20
911.73	226.01
912.03	226.03
912.33	226.07
912.64	226.05
912.94	226.03
913.24	226.00
913.55	225.99
913.85	225.98
914.15	226.02
914.46	226.04
914.76	226.03
915.06	226.02
915.37	225.98
915.67	225.96
915.97	225.96
916.27	225.93
916.58	225.94
916.88	225.94
917.18	225.92
917.49	226.04
917.79	226.03
918.09	226.06
918.39	226.10
918.70	226.08
919.00	226.10
919.30	226.18
919.60	226.17
919.91	226.16
920.21	226.17
920.51	226.13
920.81	226.11
921.12	226.14
921.42	226.13
921.72	226.15
922.02	226.16
922.32	226.18
922.63	226.20
922.93	226.30
923.23	226.31
923.53	226.29
923.83	226.17
924.13	226.19
924.44	226.18
924.74	226.20
925.04	226.25
925.34	226.24
925.64	226.17
925.94	226.17
926.24	226.27
926.55	226.25
926.85	226.28
927.15	226.27
927.45	226.27
927.75	226.26
928.05	226.27
928.35	226.25
928.65	226.28
928.95	226.29
929.26	226.20
929.56	226.24
929.86	226.26
930.16	226.25
930.46	226.23
930.76	226.23
931.06	226.15
931.36	226.10
931.66	226.12
931.96	226.14
932.26	226.16
932.56	226.08
932.86	226.10
933.16	226.09
933.46	226.08
933.76	226.06
934.06	226.09
934.36	226.15
934.66	226.15
934.96	226.12
935.26	226.12
935.56	226.15
935.86	226.10
936.16	226.07
936.46	226.06
936.76	226.05
937.06	226.02
937.36	226.04
937.66	226.05
937.96	226.04
938.26	226.00
938.56	225.98
938.86	226.00
939.16	226.03
939.46	226.05
939.76	226.07
940.06	226.07
940.35	226.03
940.65	225.94
940.95	225.96
941.25	225.91
941.55	225.89
941.85	225.87
942.15	225.92
942.45	225.97
942.75	225.97
943.04	225.98
943.34	226.02
943.64	226.00
943.94	225.97
944.24	225.97
944.54	225.98
944.84	225.98
945.13	225.96
945.43	225.92
945.73	225.91
946.03	225.89
946.33	225.88
946.62	225.86
946.92	225.86
947.22	225.87
947.52	225.89
947.82	225.91
948.11	225.89
948.41	225.84
948.71	225.79
949.01	225.81
949.31	225.79
949.60	225.78
949.90	225.81
950.20	225.80
950.50	225.80
950.79	225.78
951.09	225.81
951.39	225.81
951.69	225.79
951.98	225.82
952.28	225.83
952.58	225.83
952.87	225.83
953.17	225.85
953.47	225.83
953.76	225.82
954.06	225.79
954.36	225.77
954.66	225.77
954.95	225.82
955.25	225.83
955.55	225.85
955.84	225.82
956.14	225.83
956.44	225.85
956.73	225.82
957.03	225.83
957.32	225.83
957.62	225.82
957.92	225.86
958.21	225.84
958.51	226.05
958.81	226.08
959.10	226.09
959.40	226.13
959.69	226.15
959.99	226.17
960.29	226.18
960.58	226.18
960.88	226.25
961.17	226.23
961.47	226.24
961.76	226.22
962.06	226.25
962.36	226.22
962.65	226.24
962.95	226.25
963.24	226.23
963.54	226.23
963.83	226.25
964.13	226.23
964.42	226.21
964.72	226.06
965.01	226.06
965.31	226.05
965.60	226.00
965.90	226.11
966.19	226.07
966.49	226.08
966.78	226.08
967.08	226.06
967.37	226.06
967.67	226.03
967.96	226.07
968.26	226.06
968.55	226.09
968.85	226.08
969.14	226.08
969.43	226.07
969.73	226.06
970.02	226.04
970.32	226.03
970.61	226.00
970.91	225.95
971.20	225.93
971.49	225.91
971.79	225.93
972.08	225.80
972.38	225.82
972.67	225.80
972.96	225.83
973.26	225.80
973.55	225.85
973.85	225.84
974.14	225.82
974.43	225.83
974.73	225.79
975.02	225.77
975.31	225.77
975.61	225.78
975.90	225.76
976.19	225.75
976.49	225.76
976.78	225.78
977.07	225.78
977.37	225.79
977.66	225.81
977.95	225.78
978.24	225.80
978.54	225.83
978.83	225.82
979.12	225.81
979.42	225.81
979.71	225.77
980.00	225.77
980.29	225.78
980.59	225.74
980.88	225.79
981.17	225.79
981.46	225.78
981.76	225.78
982.05	225.84
982.34	225.85
982.63	225.85
982.93	225.85
983.22	225.90
983.51	225.90
983.80	225.93
984.09	225.95
984.39	225.93
984.68	225.91
984.97	225.92
985.26	225.90
985.55	225.92
985.85	225.89
986.14	225.91
986.43	225.93
986.72	225.93
987.01	225.87
987.30	225.88
987.59	225.87
987.89	225.88
988.18	225.82
988.47	225.81
988.76	225.79
989.05	225.78
989.34	225.75
989.63	225.79
989.92	225.76
990.22	225.74
990.51	225.74
990.80	225.73
991.09	225.75
991.38	225.77
991.67	225.75
991.96	225.74
992.25	225.74
992.54	225.70
992.83	225.71
993.12	225.71
993.41	225.74
993.70	225.81
993.99	225.84
994.28	225.87
994.58	225.89
994.87	225.88
995.16	225.88
995.45	225.87
995.74	225.81
996.03	225.84
996.32	225.87
996.61	225.90
996.90	225.90
997.19	225.89
997.48	225.89
997.77	225.87
998.06	225.89
998.34	225.87
998.63	225.87
998.92	225.88
999.21	225.91
999.50	225.90
999.79	225.84
1000.08	225.84
1000.37	225.84
1000.66	225.81
1000.95	225.86
1001.24	225.88
1001.53	225.90
1001.82	225.90
1002.11	225.85
1002.40	225.87
1002.68	225.91
1002.97	226.04
1003.26	226.02
1003.55	225.99
1003.84	226.01
1004.13	226.07
1004.42	226.07
1004.71	226.07
1004.99	226.06
1005.28	226.10
1005.57	226.09
1005.86	226.07
1006.15	226.06
1006.44	226.03
1006.72	226.05
1007.01	226.02
1007.30	226.02
1007.59	226.00
1007.88	226.00
1008.17	226.01
1008.45	225.97
1008.74	225.90
1009.03	225.81
1009.32	225.82
1009.60	225.82
1009.89	225.80
1010.18	225.72
1010.47	225.71
1010.76	225.71
1011.04	225.71
1011.33	225.70
1011.62	225.71
1011.91	225.72
1012.19	225.73
1012.48	225.73
1012.77	225.72
1013.05	225.78
1013.34	225.78
1013.63	225.78
1013.92	225.79
1014.20	225.77
1014.49	225.78
1014.78	225.80
1015.06	225.74
1015.35	225.74
1015.64	225.77
1015.92	225.80
1016.21	225.81
1016.50	225.81
1016.78	225.83
1017.07	225.84
1017.36	225.81
1017.64	225.79
1017.93	225.80
1018.22	225.78
1018.50	225.77
1018.79	225.77
1019.08	225.70
1019.36	225.71
1019.65	225.69
1019.93	225.73
1020.22	225.76
1020.51	225.85
1020.79	225.83
1021.08	225.50
1021.36	225.42
1021.65	225.74
1021.94	225.67
1022.22	225.82
1022.51	225.39
1022.79	226.56
1023.08	226.07
1023.36	227.88
1023.65	225.35
>>>>>End Processed Spectral Data<<<<<
