SpectraSuite Data File
++++++++++++++++++++++++++++++++++++
Date: Tue Oct 06 15:14:30 EDT 2015
User: lab3
Dark Spectrum Present: No
Reference Spectrum Present: No
Number of Sampled Component Spectra: 1
Spectrometers: USB2E7196
Integration Time (usec): 66000 (USB2E7196)
Spectra Averaged: 400 (USB2E7196)
Boxcar Smoothing: 10 (USB2E7196)
Correct for Electrical Dark: No (USB2E7196)
Strobe/Lamp Enabled: No (USB2E7196)
Correct for Detector Non-linearity: No (USB2E7196)
Correct for Stray Light: No (USB2E7196)
Number of Pixels in Processed Spectrum: 2048
>>>>>Begin Processed Spectral Data<<<<<
339.09	0.00
339.48	214.93
339.86	216.56
340.24	217.94
340.63	219.28
341.01	223.48
341.39	222.08
341.78	223.53
342.16	224.86
342.54	225.11
342.93	213.57
343.31	224.35
343.69	224.87
344.07	225.33
344.46	225.76
344.84	226.17
345.22	226.35
345.60	226.63
345.99	226.82
346.37	226.95
346.75	227.06
347.13	227.14
347.52	227.22
347.90	227.34
348.28	227.38
348.66	227.47
349.05	227.43
349.43	227.48
349.81	227.56
350.19	227.61
350.57	227.68
350.96	227.78
351.34	227.89
351.72	228.00
352.10	228.14
352.48	228.22
352.87	228.27
353.25	228.34
353.63	228.37
354.01	228.43
354.39	228.51
354.77	228.58
355.15	228.68
355.54	228.73
355.92	228.72
356.30	228.79
356.68	228.97
357.06	229.04
357.44	229.10
357.82	229.15
358.20	229.37
358.58	229.42
358.97	229.49
359.35	229.59
359.73	229.69
360.11	229.72
360.49	229.78
360.87	229.82
361.25	229.91
361.63	230.01
362.01	230.08
362.39	230.11
362.77	230.19
363.15	230.22
363.53	230.25
363.91	230.31
364.29	230.34
364.67	230.19
365.05	230.22
365.43	230.27
365.81	230.31
366.19	230.28
366.57	230.36
366.95	230.35
367.33	230.31
367.71	230.30
368.09	230.35
368.47	230.35
368.85	230.34
369.23	230.36
369.61	230.29
369.99	230.32
370.37	230.33
370.75	230.45
371.13	230.41
371.51	230.37
371.89	230.35
372.27	230.34
372.65	230.33
373.03	230.30
373.41	230.24
373.78	230.20
374.16	230.05
374.54	229.95
374.92	229.91
375.30	229.87
375.68	229.79
376.06	229.74
376.44	229.70
376.82	229.67
377.19	229.64
377.57	229.60
377.95	229.50
378.33	229.42
378.71	229.21
379.09	229.17
379.47	229.16
379.84	229.10
380.22	229.04
380.60	228.97
380.98	228.93
381.36	228.88
381.73	228.82
382.11	228.83
382.49	228.81
382.87	228.75
383.25	228.70
383.62	228.90
384.00	228.82
384.38	228.77
384.76	228.76
385.13	228.76
385.51	228.72
385.89	228.68
386.27	228.66
386.64	228.65
387.02	228.61
387.40	228.55
387.78	228.54
388.15	228.51
388.53	228.48
388.91	228.45
389.29	228.41
389.66	228.40
390.04	228.34
390.42	228.35
390.79	228.34
391.17	228.32
391.55	228.09
391.92	228.09
392.30	228.10
392.68	228.04
393.05	228.02
393.43	228.01
393.81	228.04
394.18	228.01
394.56	228.03
394.94	228.07
395.31	228.07
395.69	228.12
396.06	228.17
396.44	228.21
396.82	228.24
397.19	228.37
397.57	228.41
397.95	228.50
398.32	228.48
398.70	228.57
399.07	228.68
399.45	228.73
399.82	228.80
400.20	228.87
400.58	228.96
400.95	229.00
401.33	229.13
401.70	229.35
402.08	229.52
402.45	229.63
402.83	229.82
403.20	229.99
403.58	230.13
403.95	230.34
404.33	230.57
404.71	230.78
405.08	231.09
405.46	231.31
405.83	231.59
406.21	231.89
406.58	232.22
406.96	232.54
407.33	232.93
407.70	233.36
408.08	233.92
408.45	234.41
408.83	234.96
409.20	235.45
409.58	235.91
409.95	236.54
410.33	237.24
410.70	237.88
411.08	238.65
411.45	239.46
411.82	240.28
412.20	241.21
412.57	242.32
412.95	243.22
413.32	244.39
413.69	245.58
414.07	246.83
414.44	248.19
414.82	249.62
415.19	251.27
415.56	252.94
415.94	254.70
416.31	256.67
416.68	258.61
417.06	260.90
417.43	263.02
417.81	265.47
418.18	267.95
418.55	270.69
418.93	273.52
419.30	276.48
419.67	279.65
420.04	282.91
420.42	286.30
420.79	290.20
421.16	294.12
421.54	298.11
421.91	302.29
422.28	306.64
422.66	311.32
423.03	315.76
423.40	320.44
423.77	325.41
424.15	330.55
424.52	335.89
424.89	341.64
425.26	347.34
425.64	352.65
426.01	358.61
426.38	364.67
426.75	370.96
427.13	377.34
427.50	384.03
427.87	390.95
428.24	397.95
428.61	404.66
428.99	411.87
429.36	419.82
429.73	427.44
430.10	434.98
430.47	442.74
430.85	450.76
431.22	459.27
431.59	468.01
431.96	476.52
432.33	486.00
432.70	495.00
433.08	505.70
433.45	515.75
433.82	525.68
434.19	536.83
434.56	547.75
434.93	558.42
435.30	568.97
435.68	580.95
436.05	592.65
436.42	604.33
436.79	615.07
437.16	626.69
437.53	639.10
437.90	651.56
438.27	663.72
438.64	676.91
439.01	688.91
439.38	699.94
439.75	710.60
440.13	722.76
440.50	734.29
440.87	743.54
441.24	753.66
441.61	764.75
441.98	772.93
442.35	782.66
442.72	792.57
443.09	801.99
443.46	808.19
443.83	812.87
444.20	816.79
444.57	822.48
444.94	825.84
445.31	829.32
445.68	832.28
446.05	834.56
446.42	834.28
446.79	833.78
447.16	833.33
447.53	832.94
447.90	829.34
448.27	825.90
448.64	820.49
449.01	816.83
449.37	809.15
449.74	802.22
450.11	793.25
450.48	783.40
450.85	773.49
451.22	764.96
451.59	756.55
451.96	748.99
452.33	737.90
452.70	728.14
453.07	716.26
453.43	704.44
453.80	692.89
454.17	681.83
454.54	671.60
454.91	660.08
455.28	649.20
455.65	638.92
456.02	628.10
456.38	619.37
456.75	608.18
457.12	599.16
457.49	590.02
457.86	581.39
458.23	573.75
458.59	565.39
458.96	556.76
459.33	549.23
459.70	541.53
460.07	535.68
460.43	528.72
460.80	522.23
461.17	516.58
461.54	510.52
461.91	504.79
462.27	498.99
462.64	494.27
463.01	488.85
463.38	483.42
463.74	478.49
464.11	474.13
464.48	470.17
464.85	465.93
465.21	462.68
465.58	459.04
465.95	454.95
466.32	451.67
466.68	448.46
467.05	445.22
467.42	442.07
467.78	438.74
468.15	435.65
468.52	433.35
468.88	430.37
469.25	427.60
469.62	425.43
469.98	423.06
470.35	420.90
470.72	418.97
471.08	417.02
471.45	415.38
471.82	413.53
472.18	411.62
472.55	410.38
472.92	408.84
473.28	407.65
473.65	406.31
474.02	405.06
474.38	404.02
474.75	403.38
475.11	402.51
475.48	402.11
475.85	401.68
476.21	401.45
476.58	401.24
476.94	401.39
477.31	401.44
477.67	401.51
478.04	401.82
478.41	402.28
478.77	402.90
479.14	403.28
479.50	404.07
479.87	405.06
480.23	406.02
480.60	406.99
480.96	407.92
481.33	409.39
481.69	410.84
482.06	412.25
482.42	413.56
482.79	415.18
483.15	417.04
483.52	419.15
483.88	421.19
484.25	423.32
484.61	425.58
484.98	428.02
485.34	430.74
485.71	433.61
486.07	436.65
486.44	439.67
486.80	443.08
487.17	446.58
487.53	450.38
487.90	454.35
488.26	458.66
488.62	463.21
488.99	467.71
489.35	472.47
489.72	477.61
490.08	482.99
490.44	488.47
490.81	494.21
491.17	500.11
491.54	506.39
491.90	512.85
492.26	519.74
492.63	526.91
492.99	534.43
493.36	542.09
493.72	550.18
494.08	558.44
494.45	567.12
494.81	576.13
495.17	585.41
495.54	595.17
495.90	605.38
496.26	615.79
496.63	626.52
496.99	637.60
497.35	649.14
497.72	661.01
498.08	673.21
498.44	685.73
498.80	698.99
499.17	712.54
499.53	726.52
499.89	740.93
500.26	755.47
500.62	770.42
500.98	786.19
501.34	801.98
501.71	818.53
502.07	835.33
502.43	852.62
502.79	870.01
503.16	888.02
503.52	906.17
503.88	924.75
504.24	943.79
504.60	963.06
504.97	982.91
505.33	1003.21
505.69	1024.57
506.05	1045.99
506.41	1067.32
506.78	1088.85
507.14	1110.96
507.50	1133.45
507.86	1156.45
508.22	1179.53
508.59	1202.41
508.95	1226.33
509.31	1250.73
509.67	1275.70
510.03	1300.62
510.39	1325.51
510.75	1350.43
511.12	1375.65
511.48	1401.00
511.84	1426.23
512.20	1451.72
512.56	1478.15
512.92	1504.51
513.28	1530.21
513.64	1556.33
514.00	1582.69
514.37	1609.32
514.73	1635.94
515.09	1661.83
515.45	1687.94
515.81	1714.24
516.17	1740.21
516.53	1765.44
516.89	1790.56
517.25	1815.96
517.61	1841.09
517.97	1866.82
518.33	1891.73
518.69	1916.63
519.05	1941.79
519.41	1967.12
519.77	1992.36
520.13	2016.32
520.49	2040.24
520.85	2064.52
521.21	2088.17
521.57	2112.20
521.93	2135.06
522.29	2158.68
522.65	2181.95
523.01	2204.98
523.37	2227.40
523.73	2250.57
524.09	2273.37
524.45	2295.74
524.81	2317.43
525.17	2338.86
525.53	2359.62
525.89	2380.88
526.25	2401.66
526.61	2420.96
526.97	2440.19
527.33	2459.32
527.68	2477.91
528.04	2496.04
528.40	2512.92
528.76	2530.10
529.12	2546.60
529.48	2563.79
529.84	2578.38
530.20	2593.51
530.56	2607.62
530.91	2621.79
531.27	2635.25
531.63	2647.98
531.99	2660.29
532.35	2672.17
532.71	2683.68
533.07	2695.48
533.42	2705.48
533.78	2715.60
534.14	2726.62
534.50	2736.57
534.86	2747.07
535.21	2755.55
535.57	2763.84
535.93	2772.10
536.29	2778.89
536.65	2785.42
537.00	2790.19
537.36	2795.94
537.72	2800.84
538.08	2805.28
538.44	2808.47
538.79	2811.79
539.15	2813.77
539.51	2815.34
539.87	2815.92
540.22	2814.75
540.58	2813.68
540.94	2813.44
541.29	2812.25
541.65	2809.51
542.01	2806.45
542.37	2801.76
542.72	2798.78
543.08	2794.22
543.44	2789.76
543.79	2784.40
544.15	2778.52
544.51	2773.14
544.87	2766.72
545.22	2759.49
545.58	2752.02
545.94	2745.00
546.29	2736.44
546.65	2728.06
547.01	2719.51
547.36	2711.38
547.72	2703.50
548.07	2694.05
548.43	2683.54
548.79	2672.63
549.14	2662.23
549.50	2652.11
549.86	2641.12
550.21	2628.44
550.57	2616.81
550.92	2603.41
551.28	2590.67
551.64	2578.27
551.99	2565.54
552.35	2552.53
552.70	2539.31
553.06	2526.71
553.41	2513.78
553.77	2500.23
554.13	2486.89
554.48	2472.56
554.84	2457.49
555.19	2443.18
555.55	2428.79
555.90	2414.58
556.26	2400.86
556.61	2386.13
556.97	2370.29
557.32	2354.83
557.68	2339.71
558.03	2324.42
558.39	2310.04
558.74	2296.21
559.10	2280.56
559.45	2265.27
559.81	2250.67
560.16	2235.79
560.52	2220.71
560.87	2205.69
561.23	2190.44
561.58	2175.61
561.94	2160.54
562.29	2145.08
562.64	2129.60
563.00	2114.31
563.35	2099.38
563.71	2084.01
564.06	2068.75
564.42	2053.92
564.77	2039.15
565.12	2024.42
565.48	2009.49
565.83	1994.85
566.19	1980.22
566.54	1965.92
566.89	1950.85
567.25	1935.58
567.60	1921.06
567.96	1905.94
568.31	1889.58
568.66	1874.20
569.02	1859.33
569.37	1845.06
569.72	1831.27
570.08	1817.11
570.43	1802.39
570.78	1787.46
571.14	1772.43
571.49	1757.45
571.84	1742.96
572.20	1727.58
572.55	1712.70
572.90	1697.73
573.26	1682.75
573.61	1667.11
573.96	1651.89
574.31	1636.88
574.67	1621.81
575.02	1606.49
575.37	1591.13
575.72	1576.50
576.08	1561.87
576.43	1546.65
576.78	1531.48
577.13	1516.46
577.49	1501.75
577.84	1487.41
578.19	1472.74
578.54	1458.08
578.90	1443.43
579.25	1428.67
579.60	1414.89
579.95	1400.87
580.30	1386.94
580.66	1372.73
581.01	1358.74
581.36	1344.85
581.71	1331.52
582.06	1318.20
582.42	1304.71
582.77	1291.70
583.12	1278.92
583.47	1266.00
583.82	1253.44
584.17	1240.43
584.53	1227.52
584.88	1214.90
585.23	1202.19
585.58	1189.78
585.93	1177.35
586.28	1165.81
586.63	1154.03
586.98	1142.04
587.34	1130.41
587.69	1118.58
588.04	1107.19
588.39	1096.03
588.74	1084.60
589.09	1073.22
589.44	1061.64
589.79	1050.57
590.14	1039.55
590.49	1028.56
590.84	1017.89
591.19	1007.26
591.54	996.84
591.89	986.12
592.25	975.63
592.60	965.14
592.95	954.81
593.30	944.73
593.65	934.34
594.00	924.31
594.35	915.04
594.70	905.24
595.05	896.01
595.40	886.56
595.75	876.96
596.10	867.89
596.45	858.85
596.80	850.15
597.15	841.46
597.50	832.81
597.85	824.49
598.19	816.00
598.54	807.56
598.89	799.54
599.24	791.92
599.59	784.13
599.94	776.88
600.29	769.62
600.64	762.27
600.99	754.90
601.34	747.68
601.69	740.01
602.04	733.08
602.39	726.13
602.74	719.31
603.08	712.61
603.43	705.93
603.78	699.25
604.13	692.65
604.48	686.11
604.83	679.76
605.18	673.42
605.53	667.35
605.87	661.22
606.22	655.21
606.57	649.11
606.92	642.93
607.27	636.77
607.62	630.84
607.96	625.12
608.31	619.79
608.66	614.38
609.01	609.19
609.36	604.02
609.70	598.75
610.05	593.57
610.40	588.53
610.75	583.52
611.10	578.70
611.44	573.84
611.79	569.18
612.14	564.38
612.49	559.67
612.83	555.16
613.18	550.72
613.53	546.30
613.88	542.00
614.22	537.99
614.57	533.92
614.92	529.93
615.27	526.06
615.61	522.12
615.96	518.25
616.31	514.37
616.65	510.60
617.00	506.94
617.35	503.28
617.70	499.70
618.04	496.14
618.39	492.70
618.74	489.49
619.08	486.22
619.43	483.08
619.78	479.89
620.12	476.70
620.47	473.72
620.82	470.77
621.16	467.86
621.51	465.05
621.85	462.22
622.20	459.43
622.55	456.65
622.89	453.93
623.24	451.38
623.59	448.82
623.93	446.33
624.28	444.01
624.62	441.92
624.97	439.79
625.32	437.57
625.66	435.31
626.01	433.04
626.35	430.87
626.70	428.68
627.04	426.68
627.39	424.59
627.73	422.59
628.08	420.63
628.43	418.71
628.77	416.69
629.12	414.81
629.46	413.02
629.81	411.33
630.15	409.53
630.50	407.74
630.84	406.08
631.19	404.45
631.53	402.83
631.88	401.02
632.22	399.32
632.57	397.93
632.91	396.52
633.26	395.17
633.60	393.82
633.95	392.52
634.29	391.10
634.64	389.79
634.98	388.32
635.32	387.00
635.67	385.80
636.01	384.61
636.36	383.48
636.70	382.40
637.05	381.17
637.39	380.09
637.73	379.00
638.08	377.96
638.42	376.93
638.77	375.82
639.11	374.68
639.45	373.58
639.80	372.40
640.14	371.30
640.49	370.16
640.83	369.03
641.17	367.97
641.52	366.93
641.86	365.92
642.20	365.07
642.55	364.06
642.89	363.05
643.23	362.11
643.58	361.26
643.92	360.23
644.26	359.32
644.61	358.44
644.95	357.53
645.29	356.56
645.64	355.58
645.98	354.68
646.32	353.90
646.66	353.05
647.01	352.21
647.35	351.46
647.69	350.70
648.04	349.99
648.38	349.20
648.72	348.47
649.06	347.69
649.41	346.87
649.75	346.12
650.09	345.42
650.43	344.65
650.78	343.87
651.12	343.12
651.46	342.39
651.80	341.68
652.14	341.00
652.49	340.37
652.83	339.70
653.17	338.97
653.51	338.27
653.85	337.69
654.20	337.04
654.54	336.30
654.88	335.58
655.22	334.94
655.56	334.26
655.90	333.62
656.25	333.00
656.59	332.42
656.93	331.82
657.27	331.27
657.61	330.68
657.95	330.11
658.29	329.56
658.64	329.00
658.98	328.39
659.32	327.81
659.66	327.25
660.00	326.73
660.34	326.25
660.68	325.68
661.02	325.03
661.36	324.44
661.70	323.91
662.05	323.39
662.39	322.87
662.73	322.42
663.07	321.99
663.41	321.52
663.75	320.98
664.09	320.46
664.43	319.82
664.77	319.28
665.11	318.69
665.45	318.15
665.79	317.65
666.13	317.11
666.47	316.57
666.81	315.99
667.15	315.35
667.49	314.84
667.83	314.40
668.17	313.96
668.51	313.56
668.85	313.14
669.19	312.78
669.53	312.24
669.87	311.70
670.21	311.15
670.55	310.63
670.89	310.23
671.23	309.80
671.57	309.40
671.91	309.05
672.25	308.69
672.58	308.35
672.92	307.88
673.26	307.50
673.60	307.12
673.94	306.75
674.28	306.42
674.62	306.03
674.96	305.60
675.30	305.22
675.64	304.76
675.97	304.28
676.31	303.80
676.65	303.37
676.99	303.04
677.33	302.61
677.67	302.22
678.01	301.71
678.34	301.25
678.68	300.83
679.02	300.37
679.36	299.92
679.70	299.46
680.04	299.05
680.37	298.65
680.71	298.28
681.05	297.89
681.39	297.45
681.73	297.00
682.06	296.54
682.40	296.11
682.74	295.75
683.08	295.47
683.42	295.06
683.75	294.73
684.09	294.23
684.43	293.83
684.77	293.40
685.10	293.02
685.44	292.63
685.78	292.23
686.12	291.80
686.45	291.40
686.79	290.94
687.13	290.55
687.46	290.09
687.80	289.64
688.14	289.15
688.48	288.73
688.81	288.27
689.15	287.92
689.49	287.49
689.82	287.03
690.16	286.47
690.50	286.03
690.83	285.56
691.17	285.12
691.51	284.68
691.84	284.30
692.18	283.87
692.52	283.43
692.85	283.00
693.19	282.64
693.52	282.22
693.86	281.80
694.20	281.37
694.53	280.96
694.87	280.49
695.21	280.06
695.54	279.65
695.88	279.25
696.21	278.77
696.55	278.34
696.88	277.92
697.22	277.49
697.56	277.10
697.89	276.63
698.23	276.25
698.56	275.82
698.90	275.41
699.23	274.97
699.57	274.58
699.90	274.16
700.24	273.71
700.58	273.34
700.91	272.99
701.25	272.77
701.58	272.49
701.92	272.20
702.25	271.88
702.59	271.47
702.92	271.09
703.26	270.70
703.59	270.32
703.93	270.09
704.26	269.73
704.60	269.35
704.93	268.99
705.26	268.59
705.60	268.27
705.93	267.85
706.27	267.55
706.60	267.23
706.94	266.96
707.27	266.58
707.61	266.21
707.94	265.81
708.27	265.30
708.61	264.84
708.94	264.42
709.28	264.05
709.61	263.70
709.94	263.39
710.28	263.05
710.61	262.75
710.95	262.26
711.28	262.08
711.61	261.76
711.95	261.47
712.28	261.12
712.61	260.78
712.95	260.57
713.28	260.31
713.61	259.97
713.95	259.59
714.28	259.30
714.61	258.98
714.95	258.68
715.28	258.37
715.61	258.09
715.95	257.81
716.28	257.52
716.61	257.27
716.95	256.97
717.28	256.70
717.61	256.37
717.94	256.10
718.28	255.69
718.61	255.40
718.94	255.10
719.27	254.86
719.61	254.61
719.94	254.30
720.27	253.95
720.60	253.67
720.94	253.42
721.27	253.17
721.60	252.95
721.93	252.71
722.27	252.50
722.60	252.27
722.93	252.01
723.26	251.77
723.59	251.51
723.93	251.31
724.26	251.10
724.59	250.88
724.92	250.68
725.25	250.51
725.59	250.30
725.92	250.13
726.25	249.90
726.58	249.69
726.91	249.48
727.24	249.29
727.57	249.07
727.91	248.82
728.24	248.64
728.57	248.42
728.90	248.23
729.23	247.97
729.56	247.86
729.89	247.66
730.22	247.46
730.55	247.27
730.89	247.06
731.22	246.85
731.55	246.66
731.88	246.48
732.21	246.27
732.54	246.06
732.87	245.86
733.20	245.70
733.53	245.53
733.86	245.35
734.19	245.17
734.52	245.04
734.85	245.01
735.18	244.79
735.51	244.68
735.84	244.53
736.17	244.43
736.50	244.16
736.83	244.22
737.16	244.06
737.49	243.91
737.82	243.71
738.15	243.58
738.48	243.41
738.81	243.23
739.14	243.04
739.47	242.88
739.80	242.73
740.13	242.59
740.46	242.42
740.79	242.25
741.12	242.09
741.45	241.90
741.78	241.66
742.11	241.58
742.44	241.37
742.77	241.24
743.10	241.07
743.43	240.92
743.75	240.59
744.08	240.71
744.41	240.56
744.74	240.41
745.07	240.23
745.40	240.14
745.73	240.10
746.06	239.98
746.39	239.89
746.71	239.76
747.04	239.61
747.37	239.48
747.70	239.38
748.03	239.27
748.36	239.18
748.68	239.04
749.01	238.87
749.34	238.77
749.67	238.65
750.00	238.56
750.33	238.58
750.65	238.50
750.98	238.14
751.31	238.03
751.64	237.95
751.97	237.94
752.29	237.81
752.62	237.63
752.95	237.52
753.28	237.38
753.60	237.26
753.93	237.18
754.26	237.08
754.59	236.93
754.91	236.80
755.24	236.67
755.57	236.59
755.90	236.48
756.22	236.36
756.55	236.23
756.88	236.07
757.20	235.86
757.53	235.70
757.86	235.60
758.19	235.52
758.51	235.44
758.84	235.26
759.17	235.16
759.49	235.07
759.82	235.07
760.15	235.00
760.47	234.91
760.80	234.79
761.13	234.74
761.45	234.65
761.78	234.58
762.11	234.51
762.43	234.39
762.76	234.30
763.08	234.26
763.41	234.20
763.74	234.15
764.06	234.08
764.39	234.01
764.71	233.92
765.04	233.84
765.37	233.74
765.69	233.69
766.02	233.62
766.34	233.53
766.67	233.40
767.00	233.37
767.32	233.40
767.65	233.45
767.97	233.37
768.30	233.33
768.62	233.25
768.95	233.17
769.27	233.11
769.60	233.09
769.92	232.99
770.25	232.91
770.57	232.83
770.90	232.76
771.22	232.69
771.55	232.65
771.87	232.60
772.20	232.56
772.52	232.65
772.85	232.81
773.17	232.76
773.50	232.70
773.82	232.63
774.15	232.48
774.47	232.31
774.80	232.25
775.12	232.18
775.45	232.14
775.77	232.11
776.09	232.07
776.42	232.03
776.74	232.04
777.07	231.97
777.39	231.93
777.72	231.87
778.04	231.86
778.36	231.80
778.69	231.75
779.01	231.72
779.33	231.51
779.66	231.26
779.98	231.23
780.31	231.21
780.63	231.22
780.95	231.24
781.28	231.23
781.60	231.17
781.92	231.14
782.25	231.12
782.57	231.09
782.89	231.05
783.22	230.98
783.54	230.92
783.86	230.93
784.19	230.91
784.51	230.95
784.83	230.89
785.16	230.84
785.48	230.83
785.80	230.80
786.12	230.79
786.45	230.75
786.77	230.72
787.09	230.67
787.42	230.57
787.74	230.53
788.06	230.50
788.38	230.46
788.71	230.42
789.03	230.39
789.35	230.39
789.67	230.35
789.99	230.34
790.32	230.29
790.64	230.28
790.96	230.41
791.28	230.29
791.61	230.26
791.93	230.26
792.25	230.21
792.57	230.30
792.89	230.24
793.21	230.23
793.54	230.20
793.86	230.16
794.18	230.15
794.50	230.08
794.82	230.06
795.14	230.07
795.47	230.07
795.79	230.06
796.11	229.98
796.43	229.96
796.75	229.93
797.07	229.92
797.39	229.89
797.71	229.72
798.04	229.73
798.36	229.72
798.68	229.68
799.00	229.67
799.32	229.56
799.64	229.57
799.96	229.54
800.28	229.54
800.60	229.51
800.92	229.50
801.24	229.48
801.56	229.46
801.89	229.42
802.21	229.40
802.53	229.34
802.85	229.38
803.17	229.43
803.49	229.38
803.81	229.35
804.13	229.31
804.45	229.27
804.77	229.27
805.09	229.26
805.41	229.23
805.73	229.19
806.05	229.14
806.37	229.10
806.69	229.09
807.01	229.07
807.33	229.06
807.65	228.99
807.97	229.06
808.28	229.05
808.60	229.03
808.92	229.00
809.24	229.10
809.56	229.04
809.88	228.96
810.20	228.96
810.52	228.98
810.84	228.94
811.16	228.93
811.48	228.89
811.80	228.94
812.12	228.92
812.43	228.93
812.75	228.93
813.07	228.92
813.39	228.92
813.71	228.88
814.03	228.84
814.35	228.83
814.67	228.74
814.98	228.70
815.30	228.70
815.62	228.67
815.94	228.53
816.26	228.54
816.58	228.50
816.89	228.51
817.21	228.44
817.53	228.47
817.85	228.47
818.17	228.46
818.48	228.37
818.80	228.40
819.12	228.36
819.44	228.33
819.76	228.28
820.07	228.26
820.39	228.24
820.71	228.25
821.03	228.25
821.34	228.22
821.66	228.25
821.98	228.25
822.30	228.22
822.61	228.33
822.93	228.30
823.25	228.30
823.57	228.27
823.88	228.29
824.20	228.27
824.52	228.27
824.83	228.24
825.15	228.22
825.47	228.21
825.79	228.21
826.10	228.20
826.42	228.20
826.74	228.19
827.05	228.19
827.37	228.17
827.69	228.15
828.00	228.14
828.32	228.12
828.64	228.10
828.95	228.19
829.27	228.12
829.58	228.11
829.90	228.12
830.22	228.12
830.53	228.08
830.85	228.05
831.17	227.99
831.48	227.98
831.80	227.97
832.11	227.95
832.43	227.93
832.75	227.91
833.06	228.00
833.38	227.96
833.69	227.94
834.01	227.95
834.32	227.93
834.64	227.92
834.96	227.90
835.27	227.88
835.59	227.81
835.90	227.78
836.22	227.77
836.53	227.73
836.85	227.70
837.16	227.87
837.48	227.87
837.79	227.92
838.11	227.94
838.42	227.93
838.74	227.93
839.05	227.91
839.37	227.92
839.68	227.80
840.00	227.78
840.31	227.81
840.63	227.79
840.94	227.77
841.26	227.75
841.57	227.74
841.88	227.76
842.20	227.73
842.51	227.69
842.83	227.68
843.14	227.85
843.46	227.85
843.77	227.74
844.08	227.75
844.40	227.68
844.71	227.67
845.03	227.65
845.34	227.64
845.65	227.65
845.97	227.64
846.28	227.67
846.60	227.69
846.91	227.66
847.22	227.65
847.54	227.69
847.85	227.70
848.16	227.68
848.48	227.64
848.79	227.71
849.10	227.73
849.42	227.75
849.73	227.58
850.04	227.57
850.36	227.51
850.67	227.51
850.98	227.52
851.30	227.53
851.61	227.52
851.92	227.51
852.23	227.54
852.55	227.54
852.86	227.53
853.17	227.55
853.49	227.57
853.80	227.62
854.11	227.65
854.42	227.67
854.74	227.66
855.05	227.67
855.36	227.58
855.67	227.58
855.99	227.57
856.30	227.78
856.61	227.77
856.92	227.77
857.23	227.78
857.55	227.76
857.86	227.74
858.17	227.77
858.48	227.75
858.79	227.71
859.11	227.73
859.42	227.72
859.73	227.69
860.04	227.69
860.35	227.62
860.66	227.55
860.98	227.54
861.29	227.55
861.60	227.54
861.91	227.57
862.22	227.54
862.53	227.52
862.84	227.31
863.16	227.35
863.47	227.31
863.78	227.29
864.09	227.31
864.40	227.31
864.71	227.31
865.02	227.34
865.33	227.32
865.64	227.27
865.95	227.27
866.27	227.37
866.58	227.35
866.89	227.37
867.20	227.37
867.51	227.33
867.82	227.33
868.13	227.38
868.44	227.34
868.75	227.38
869.06	227.41
869.37	227.43
869.68	227.38
869.99	227.42
870.30	227.43
870.61	227.41
870.92	227.39
871.23	227.38
871.54	227.39
871.85	227.43
872.16	227.46
872.47	227.44
872.78	227.35
873.09	227.38
873.40	227.36
873.71	227.37
874.02	227.40
874.33	227.38
874.64	227.33
874.95	227.35
875.26	227.31
875.56	227.29
875.87	227.28
876.18	227.28
876.49	227.46
876.80	227.45
877.11	227.43
877.42	227.45
877.73	227.47
878.04	227.44
878.35	227.44
878.66	227.45
878.96	227.46
879.27	227.45
879.58	227.42
879.89	227.43
880.20	227.48
880.51	227.46
880.82	227.48
881.12	227.49
881.43	227.45
881.74	227.43
882.05	227.41
882.36	227.42
882.67	227.42
882.97	227.23
883.28	227.23
883.59	227.21
883.90	227.22
884.21	227.24
884.51	227.23
884.82	227.20
885.13	227.19
885.44	227.20
885.74	227.21
886.05	227.22
886.36	227.21
886.67	227.14
886.98	227.24
887.28	227.27
887.59	227.27
887.90	227.27
888.20	227.28
888.51	227.32
888.82	227.28
889.13	227.30
889.43	227.46
889.74	227.43
890.05	227.43
890.35	227.43
890.66	227.40
890.97	227.38
891.28	227.36
891.58	227.35
891.89	227.35
892.20	227.33
892.50	227.31
892.81	227.30
893.12	227.30
893.42	227.22
893.73	227.21
894.04	227.21
894.34	227.23
894.65	227.22
894.95	227.20
895.26	227.21
895.57	227.29
895.87	227.11
896.18	227.15
896.48	227.17
896.79	227.14
897.10	227.19
897.40	227.21
897.71	227.22
898.01	227.19
898.32	227.19
898.63	227.18
898.93	227.19
899.24	227.19
899.54	227.17
899.85	227.17
900.15	227.14
900.46	227.15
900.76	227.15
901.07	227.15
901.38	227.15
901.68	227.16
901.99	227.07
902.29	227.07
902.60	227.05
902.90	227.04
903.21	227.05
903.51	227.02
903.82	227.04
904.12	227.04
904.43	227.07
904.73	227.07
905.03	227.06
905.34	227.24
905.64	227.23
905.95	227.24
906.25	227.24
906.56	227.24
906.86	227.23
907.17	227.23
907.47	227.25
907.77	227.23
908.08	227.19
908.38	227.20
908.69	227.21
908.99	227.24
909.30	227.26
909.60	227.25
909.90	227.25
910.21	227.20
910.51	227.16
910.81	227.16
911.12	227.17
911.42	227.19
911.73	227.00
912.03	227.00
912.33	227.04
912.64	227.03
912.94	227.02
913.24	226.99
913.55	226.98
913.85	226.96
914.15	227.00
914.46	227.03
914.76	227.00
915.06	226.98
915.37	226.95
915.67	226.93
915.97	226.94
916.27	226.92
916.58	226.93
916.88	226.93
917.18	226.92
917.49	227.05
917.79	227.05
918.09	227.07
918.39	227.13
918.70	227.11
919.00	227.11
919.30	227.19
919.60	227.16
919.91	227.14
920.21	227.15
920.51	227.10
920.81	227.09
921.12	227.13
921.42	227.14
921.72	227.15
922.02	227.16
922.32	227.18
922.63	227.20
922.93	227.28
923.23	227.31
923.53	227.29
923.83	227.15
924.13	227.16
924.44	227.15
924.74	227.16
925.04	227.19
925.34	227.20
925.64	227.11
925.94	227.12
926.24	227.21
926.55	227.20
926.85	227.23
927.15	227.22
927.45	227.22
927.75	227.22
928.05	227.21
928.35	227.19
928.65	227.21
928.95	227.21
929.26	227.13
929.56	227.15
929.86	227.16
930.16	227.16
930.46	227.14
930.76	227.16
931.06	227.08
931.36	227.04
931.66	227.07
931.96	227.08
932.26	227.10
932.56	227.02
932.86	227.03
933.16	227.03
933.46	227.00
933.76	226.95
934.06	226.99
934.36	227.05
934.66	227.05
934.96	227.02
935.26	227.02
935.56	227.05
935.86	227.00
936.16	226.96
936.46	226.96
936.76	226.96
937.06	226.92
937.36	226.92
937.66	226.92
937.96	226.90
938.26	226.89
938.56	226.88
938.86	226.89
939.16	226.93
939.46	226.95
939.76	226.96
940.06	226.97
940.35	226.94
940.65	226.85
940.95	226.87
941.25	226.84
941.55	226.81
941.85	226.80
942.15	226.85
942.45	226.91
942.75	226.90
943.04	226.90
943.34	226.96
943.64	226.95
943.94	226.94
944.24	226.94
944.54	226.95
944.84	226.94
945.13	226.93
945.43	226.90
945.73	226.89
946.03	226.88
946.33	226.87
946.62	226.86
946.92	226.85
947.22	226.86
947.52	226.87
947.82	226.90
948.11	226.89
948.41	226.85
948.71	226.80
949.01	226.80
949.31	226.78
949.60	226.76
949.90	226.79
950.20	226.78
950.50	226.78
950.79	226.77
951.09	226.81
951.39	226.80
951.69	226.78
951.98	226.81
952.28	226.82
952.58	226.82
952.87	226.85
953.17	226.88
953.47	226.85
953.76	226.84
954.06	226.79
954.36	226.78
954.66	226.75
954.95	226.81
955.25	226.82
955.55	226.84
955.84	226.82
956.14	226.83
956.44	226.86
956.73	226.83
957.03	226.83
957.32	226.81
957.62	226.80
957.92	226.84
958.21	226.81
958.51	227.01
958.81	227.02
959.10	227.01
959.40	227.06
959.69	227.08
959.99	227.11
960.29	227.13
960.58	227.13
960.88	227.22
961.17	227.19
961.47	227.20
961.76	227.20
962.06	227.24
962.36	227.19
962.65	227.20
962.95	227.20
963.24	227.20
963.54	227.19
963.83	227.24
964.13	227.23
964.42	227.22
964.72	227.09
965.01	227.11
965.31	227.10
965.60	227.04
965.90	227.14
966.19	227.10
966.49	227.11
966.78	227.10
967.08	227.08
967.37	227.08
967.67	227.05
967.96	227.07
968.26	227.04
968.55	227.08
968.85	227.07
969.14	227.08
969.43	227.07
969.73	227.06
970.02	227.05
970.32	227.01
970.61	226.99
970.91	226.93
971.20	226.90
971.49	226.89
971.79	226.91
972.08	226.79
972.38	226.81
972.67	226.80
972.96	226.84
973.26	226.81
973.55	226.87
973.85	226.85
974.14	226.83
974.43	226.85
974.73	226.81
975.02	226.79
975.31	226.78
975.61	226.79
975.90	226.78
976.19	226.75
976.49	226.78
976.78	226.77
977.07	226.77
977.37	226.78
977.66	226.79
977.95	226.76
978.24	226.76
978.54	226.78
978.83	226.77
979.12	226.76
979.42	226.76
979.71	226.71
980.00	226.70
980.29	226.71
980.59	226.67
980.88	226.72
981.17	226.72
981.46	226.72
981.76	226.72
982.05	226.78
982.34	226.80
982.63	226.79
982.93	226.82
983.22	226.87
983.51	226.88
983.80	226.89
984.09	226.92
984.39	226.93
984.68	226.88
984.97	226.90
985.26	226.87
985.55	226.89
985.85	226.86
986.14	226.89
986.43	226.90
986.72	226.92
987.01	226.87
987.30	226.87
987.59	226.87
987.89	226.87
988.18	226.81
988.47	226.78
988.76	226.78
989.05	226.76
989.34	226.71
989.63	226.75
989.92	226.73
990.22	226.70
990.51	226.68
990.80	226.68
991.09	226.68
991.38	226.71
991.67	226.68
991.96	226.67
992.25	226.66
992.54	226.62
992.83	226.62
993.12	226.61
993.41	226.64
993.70	226.71
993.99	226.75
994.28	226.76
994.58	226.80
994.87	226.78
995.16	226.76
995.45	226.75
995.74	226.70
996.03	226.72
996.32	226.76
996.61	226.83
996.90	226.82
997.19	226.82
997.48	226.80
997.77	226.80
998.06	226.82
998.34	226.81
998.63	226.83
998.92	226.85
999.21	226.88
999.50	226.89
999.79	226.82
1000.08	226.79
1000.37	226.80
1000.66	226.76
1000.95	226.80
1001.24	226.81
1001.53	226.85
1001.82	226.85
1002.11	226.80
1002.40	226.80
1002.68	226.83
1002.97	226.97
1003.26	226.94
1003.55	226.91
1003.84	226.92
1004.13	226.98
1004.42	226.96
1004.71	226.96
1004.99	226.95
1005.28	226.99
1005.57	226.99
1005.86	226.97
1006.15	226.95
1006.44	226.94
1006.72	226.97
1007.01	226.96
1007.30	226.96
1007.59	226.92
1007.88	226.92
1008.17	226.92
1008.45	226.91
1008.74	226.82
1009.03	226.73
1009.32	226.74
1009.60	226.74
1009.89	226.74
1010.18	226.65
1010.47	226.66
1010.76	226.66
1011.04	226.65
1011.33	226.65
1011.62	226.64
1011.91	226.66
1012.19	226.69
1012.48	226.68
1012.77	226.67
1013.05	226.72
1013.34	226.72
1013.63	226.72
1013.92	226.73
1014.20	226.73
1014.49	226.73
1014.78	226.75
1015.06	226.69
1015.35	226.69
1015.64	226.74
1015.92	226.78
1016.21	226.80
1016.50	226.79
1016.78	226.80
1017.07	226.84
1017.36	226.81
1017.64	226.78
1017.93	226.80
1018.22	226.77
1018.50	226.77
1018.79	226.78
1019.08	226.71
1019.36	226.73
1019.65	226.72
1019.93	226.78
1020.22	226.80
1020.51	226.90
1020.79	226.89
1021.08	226.50
1021.36	226.52
1021.65	226.71
1021.94	226.70
1022.22	226.98
1022.51	226.42
1022.79	227.61
1023.08	226.93
1023.36	229.05
1023.65	226.35
>>>>>End Processed Spectral Data<<<<<
