SpectraSuite Data File
++++++++++++++++++++++++++++++++++++
Date: Tue Oct 06 21:09:05 EDT 2015
User: lab3
Dark Spectrum Present: No
Reference Spectrum Present: No
Number of Sampled Component Spectra: 1
Spectrometers: USB2E7196
Integration Time (usec): 66000 (USB2E7196)
Spectra Averaged: 5000 (USB2E7196)
Boxcar Smoothing: 10 (USB2E7196)
Correct for Electrical Dark: No (USB2E7196)
Strobe/Lamp Enabled: No (USB2E7196)
Correct for Detector Non-linearity: No (USB2E7196)
Correct for Stray Light: No (USB2E7196)
Number of Pixels in Processed Spectrum: 2048
>>>>>Begin Processed Spectral Data<<<<<
339.09	0.00
339.48	213.71
339.86	215.21
340.24	216.62
340.63	218.11
341.01	222.22
341.39	220.75
341.78	222.27
342.16	223.64
342.54	223.83
342.93	212.38
343.31	223.11
343.69	223.65
344.07	224.12
344.46	224.57
344.84	224.98
345.22	225.17
345.60	225.45
345.99	225.66
346.37	225.80
346.75	225.92
347.13	226.01
347.52	226.10
347.90	226.23
348.28	226.28
348.66	226.36
349.05	226.35
349.43	226.43
349.81	226.50
350.19	226.57
350.57	226.66
350.96	226.76
351.34	226.87
351.72	226.98
352.10	227.10
352.48	227.17
352.87	227.22
353.25	227.29
353.63	227.34
354.01	227.39
354.39	227.47
354.77	227.55
355.15	227.67
355.54	227.71
355.92	227.72
356.30	227.79
356.68	227.97
357.06	228.06
357.44	228.10
357.82	228.15
358.20	228.37
358.58	228.42
358.97	228.49
359.35	228.58
359.73	228.67
360.11	228.73
360.49	228.79
360.87	228.84
361.25	228.91
361.63	229.01
362.01	229.07
362.39	229.09
362.77	229.14
363.15	229.16
363.53	229.20
363.91	229.24
364.29	229.26
364.67	229.11
365.05	229.13
365.43	229.17
365.81	229.21
366.19	229.16
366.57	229.24
366.95	229.24
367.33	229.19
367.71	229.18
368.09	229.21
368.47	229.20
368.85	229.19
369.23	229.21
369.61	229.14
369.99	229.17
370.37	229.18
370.75	229.30
371.13	229.27
371.51	229.22
371.89	229.20
372.27	229.18
372.65	229.17
373.03	229.13
373.41	229.09
373.78	229.03
374.16	228.90
374.54	228.80
374.92	228.75
375.30	228.72
375.68	228.64
376.06	228.60
376.44	228.54
376.82	228.51
377.19	228.46
377.57	228.41
377.95	228.30
378.33	228.23
378.71	228.03
379.09	227.99
379.47	227.97
379.84	227.91
380.22	227.84
380.60	227.76
380.98	227.72
381.36	227.66
381.73	227.60
382.11	227.60
382.49	227.56
382.87	227.50
383.25	227.45
383.62	227.63
384.00	227.55
384.38	227.53
384.76	227.53
385.13	227.55
385.51	227.52
385.89	227.47
386.27	227.45
386.64	227.44
387.02	227.39
387.40	227.35
387.78	227.34
388.15	227.33
388.53	227.30
388.91	227.28
389.29	227.25
389.66	227.26
390.04	227.22
390.42	227.23
390.79	227.24
391.17	227.22
391.55	227.01
391.92	227.01
392.30	227.03
392.68	226.98
393.05	226.96
393.43	226.96
393.81	226.99
394.18	226.97
394.56	226.98
394.94	227.04
395.31	227.05
395.69	227.12
396.06	227.17
396.44	227.21
396.82	227.23
397.19	227.37
397.57	227.39
397.95	227.46
398.32	227.46
398.70	227.53
399.07	227.63
399.45	227.69
399.82	227.76
400.20	227.82
400.58	227.91
400.95	227.93
401.33	228.06
401.70	228.29
402.08	228.43
402.45	228.56
402.83	228.73
403.20	228.91
403.58	229.04
403.95	229.25
404.33	229.47
404.71	229.69
405.08	230.00
405.46	230.24
405.83	230.51
406.21	230.80
406.58	231.13
406.96	231.45
407.33	231.82
407.70	232.23
408.08	232.81
408.45	233.30
408.83	233.85
409.20	234.34
409.58	234.79
409.95	235.41
410.33	236.08
410.70	236.72
411.08	237.46
411.45	238.26
411.82	239.06
412.20	239.98
412.57	241.08
412.95	241.95
413.32	243.08
413.69	244.25
414.07	245.49
414.44	246.84
414.82	248.22
415.19	249.85
415.56	251.50
415.94	253.21
416.31	255.14
416.68	257.07
417.06	259.30
417.43	261.39
417.81	263.80
418.18	266.25
418.55	268.93
418.93	271.71
419.30	274.63
419.67	277.72
420.04	280.89
420.42	284.21
420.79	288.03
421.16	291.90
421.54	295.81
421.91	299.91
422.28	304.17
422.66	308.74
423.03	313.10
423.40	317.66
423.77	322.53
424.15	327.53
424.52	332.70
424.89	338.31
425.26	343.87
425.64	349.03
426.01	354.82
426.38	360.73
426.75	366.82
427.13	373.03
427.50	379.54
427.87	386.30
428.24	393.10
428.61	399.62
428.99	406.65
429.36	414.37
429.73	421.74
430.10	429.08
430.47	436.60
430.85	444.35
431.22	452.61
431.59	461.11
431.96	469.39
432.33	478.59
432.70	487.33
433.08	497.69
433.45	507.45
433.82	517.11
434.19	527.93
434.56	538.58
434.93	548.91
435.30	559.16
435.68	570.77
436.05	582.12
436.42	593.49
436.79	603.89
437.16	615.19
437.53	627.27
437.90	639.35
438.27	651.21
438.64	664.06
439.01	675.73
439.38	686.42
439.75	696.78
440.13	708.58
440.50	719.81
440.87	728.81
441.24	738.71
441.61	749.57
441.98	757.59
442.35	767.15
442.72	776.88
443.09	786.17
443.46	792.26
443.83	796.92
444.20	800.82
444.57	806.38
444.94	809.77
445.31	813.26
445.68	816.30
446.05	818.66
446.42	818.54
446.79	818.19
447.16	817.95
447.53	817.78
447.90	814.51
448.27	811.42
448.64	806.39
449.01	803.00
449.37	795.68
449.74	789.06
450.11	780.45
450.48	770.95
450.85	761.40
451.22	753.22
451.59	745.15
451.96	737.85
452.33	727.22
452.70	717.74
453.07	706.23
453.43	694.72
453.80	683.48
454.17	672.69
454.54	662.73
454.91	651.48
455.28	640.83
455.65	630.78
456.02	620.12
456.38	611.53
456.75	600.54
457.12	591.66
457.49	582.72
457.86	574.23
458.23	566.76
458.59	558.52
458.96	550.07
459.33	542.64
459.70	535.07
460.07	529.29
460.43	522.48
460.80	516.11
461.17	510.57
461.54	504.59
461.91	498.97
462.27	493.26
462.64	488.59
463.01	483.26
463.38	477.88
463.74	473.02
464.11	468.71
464.48	464.81
464.85	460.61
465.21	457.39
465.58	453.80
465.95	449.75
466.32	446.53
466.68	443.38
467.05	440.19
467.42	437.09
467.78	433.77
468.15	430.72
468.52	428.48
468.88	425.50
469.25	422.79
469.62	420.64
469.98	418.31
470.35	416.24
470.72	414.35
471.08	412.45
471.45	410.86
471.82	409.07
472.18	407.21
472.55	405.99
472.92	404.48
473.28	403.30
473.65	402.03
474.02	400.81
474.38	399.77
474.75	399.16
475.11	398.33
475.48	397.94
475.85	397.49
476.21	397.22
476.58	397.03
476.94	397.19
477.31	397.21
477.67	397.26
478.04	397.53
478.41	397.93
478.77	398.51
479.14	398.87
479.50	399.62
479.87	400.59
480.23	401.54
480.60	402.44
480.96	403.34
481.33	404.74
481.69	406.10
482.06	407.46
482.42	408.68
482.79	410.23
483.15	412.05
483.52	414.10
483.88	416.04
484.25	418.11
484.61	420.29
484.98	422.65
485.34	425.31
485.71	428.08
486.07	431.05
486.44	433.97
486.80	437.27
487.17	440.64
487.53	444.30
487.90	448.14
488.26	452.33
488.62	456.73
488.99	461.13
489.35	465.75
489.72	470.71
490.08	475.94
490.44	481.28
490.81	486.84
491.17	492.57
491.54	498.73
491.90	505.00
492.26	511.72
492.63	518.75
492.99	526.10
493.36	533.60
493.72	541.49
494.08	549.59
494.45	558.08
494.81	566.96
495.17	576.08
495.54	585.71
495.90	595.75
496.26	606.00
496.63	616.55
496.99	627.48
497.35	638.92
497.72	650.66
498.08	662.73
498.44	675.13
498.80	688.21
499.17	701.58
499.53	715.41
499.89	729.67
500.26	744.15
500.62	758.97
500.98	774.66
501.34	790.40
501.71	806.89
502.07	823.70
502.43	840.99
502.79	858.49
503.16	876.49
503.52	894.71
503.88	913.36
504.24	932.47
504.60	951.83
504.97	971.83
505.33	992.33
505.69	1013.87
506.05	1035.66
506.41	1057.41
506.78	1079.29
507.14	1101.73
507.50	1124.68
507.86	1148.01
508.22	1171.61
508.59	1195.10
508.95	1219.60
509.31	1244.65
509.67	1270.33
510.03	1295.96
510.39	1321.52
510.75	1347.20
511.12	1373.23
511.48	1399.57
511.84	1425.85
512.20	1452.49
512.56	1480.25
512.92	1507.84
513.28	1534.81
513.64	1562.21
514.00	1590.02
514.37	1618.10
514.73	1646.26
515.09	1673.74
515.45	1701.52
515.81	1729.57
516.17	1757.40
516.53	1784.58
516.89	1811.48
517.25	1838.74
517.61	1865.78
517.97	1893.54
518.33	1920.74
518.69	1947.87
519.05	1975.37
519.41	2003.06
519.77	2030.85
520.13	2057.07
520.49	2083.31
520.85	2109.96
521.21	2136.03
521.57	2162.42
521.93	2187.76
522.29	2213.80
522.65	2239.69
523.01	2265.31
523.37	2290.18
523.73	2315.77
524.09	2341.08
524.45	2366.23
524.81	2390.72
525.17	2415.16
525.53	2438.65
525.89	2462.62
526.25	2486.25
526.61	2508.16
526.97	2530.19
527.33	2552.01
527.68	2573.70
528.04	2595.06
528.40	2615.24
528.76	2635.51
529.12	2655.24
529.48	2675.70
529.84	2693.38
530.20	2711.44
530.56	2728.75
530.91	2746.25
531.27	2763.05
531.63	2778.99
531.99	2794.59
532.35	2809.97
532.71	2824.89
533.07	2840.24
533.42	2853.61
533.78	2867.14
534.14	2881.86
534.50	2895.36
534.86	2909.40
535.21	2921.14
535.57	2932.74
535.93	2944.06
536.29	2953.58
536.65	2963.01
537.00	2971.07
537.36	2980.39
537.72	2988.79
538.08	2996.77
538.44	3003.39
538.79	3009.88
539.15	3015.02
539.51	3019.34
539.87	3022.39
540.22	3023.78
540.58	3025.46
540.94	3027.85
541.29	3029.18
541.65	3029.06
542.01	3028.57
542.37	3026.33
542.72	3025.85
543.08	3023.56
543.44	3021.46
543.79	3019.18
544.15	3016.01
544.51	3012.80
544.87	3008.70
545.22	3003.56
545.58	2998.05
545.94	2992.85
546.29	2986.16
546.65	2979.60
547.01	2973.29
547.36	2967.54
547.72	2961.85
548.07	2954.41
548.43	2945.78
548.79	2936.86
549.14	2928.15
549.50	2919.55
549.86	2910.03
550.21	2898.75
550.57	2888.79
550.92	2876.97
551.28	2865.40
551.64	2854.24
551.99	2842.83
552.35	2830.91
552.70	2818.86
553.06	2807.34
553.41	2795.39
553.77	2783.11
554.13	2770.86
554.48	2757.36
554.84	2742.72
555.19	2728.66
555.55	2714.54
555.90	2700.95
556.26	2687.59
556.61	2673.12
556.97	2657.56
557.32	2642.45
557.68	2627.72
558.03	2612.56
558.39	2598.42
558.74	2584.97
559.10	2569.52
559.45	2554.06
559.81	2539.30
560.16	2524.18
560.52	2508.71
560.87	2493.49
561.23	2477.81
561.58	2462.78
561.94	2447.29
562.29	2431.40
562.64	2415.62
563.00	2399.86
563.35	2384.29
563.71	2368.33
564.06	2352.49
564.42	2337.15
564.77	2321.96
565.12	2306.36
565.48	2290.46
565.83	2274.71
566.19	2258.89
566.54	2243.30
566.89	2227.26
567.25	2211.19
567.60	2195.92
567.96	2180.04
568.31	2162.66
568.66	2146.21
569.02	2130.32
569.37	2115.04
569.72	2100.33
570.08	2085.12
570.43	2069.31
570.78	2053.28
571.14	2037.13
571.49	2020.97
571.84	2005.10
572.20	1987.90
572.55	1971.52
572.90	1955.27
573.26	1939.09
573.61	1922.27
573.96	1905.92
574.31	1889.46
574.67	1872.67
575.02	1855.62
575.37	1838.53
575.72	1822.36
576.08	1805.88
576.43	1788.54
576.78	1771.49
577.13	1754.65
577.49	1738.06
577.84	1721.97
578.19	1705.40
578.54	1688.82
578.90	1672.13
579.25	1655.25
579.60	1639.74
579.95	1623.90
580.30	1607.98
580.66	1591.74
581.01	1575.59
581.36	1559.55
581.71	1544.40
582.06	1529.26
582.42	1513.89
582.77	1499.00
583.12	1484.33
583.47	1469.71
583.82	1455.26
584.17	1440.21
584.53	1425.26
584.88	1410.64
585.23	1395.87
585.58	1381.53
585.93	1367.02
586.28	1353.62
586.63	1340.05
586.98	1325.94
587.34	1312.28
587.69	1298.44
588.04	1284.96
588.39	1271.75
588.74	1258.15
589.09	1244.66
589.44	1230.86
589.79	1217.69
590.14	1204.55
590.49	1191.45
590.84	1178.60
591.19	1166.13
591.54	1153.81
591.89	1141.08
592.25	1128.68
592.60	1116.17
592.95	1103.78
593.30	1091.87
593.65	1079.58
594.00	1067.61
594.35	1056.60
594.70	1044.85
595.05	1033.73
595.40	1022.45
595.75	1011.01
596.10	1000.24
596.45	989.43
596.80	979.04
597.15	968.62
597.50	958.18
597.85	948.09
598.19	937.96
598.54	927.82
598.89	918.22
599.24	909.03
599.59	899.59
599.94	890.87
600.29	882.16
600.64	873.22
600.99	864.17
601.34	855.47
601.69	846.24
602.04	837.98
602.39	829.59
602.74	821.42
603.08	813.36
603.43	805.29
603.78	797.23
604.13	789.21
604.48	781.23
604.83	773.52
605.18	765.84
605.53	758.36
605.87	750.84
606.22	743.43
606.57	735.95
606.92	728.42
607.27	720.90
607.62	713.58
607.96	706.55
608.31	700.04
608.66	693.39
609.01	687.04
609.36	680.61
609.70	674.18
610.05	667.73
610.40	661.51
610.75	655.25
611.10	649.21
611.44	643.20
611.79	637.32
612.14	631.35
612.49	625.45
612.83	619.86
613.18	614.37
613.53	608.85
613.88	603.48
614.22	598.47
614.57	593.38
614.92	588.42
615.27	583.58
615.61	578.60
615.96	573.71
616.31	568.80
616.65	564.04
617.00	559.40
617.35	554.88
617.70	550.34
618.04	545.93
618.39	541.64
618.74	537.61
619.08	533.53
619.43	529.60
619.78	525.61
620.12	521.59
620.47	517.77
620.82	514.08
621.16	510.41
621.51	506.79
621.85	503.18
622.20	499.62
622.55	496.06
622.89	492.55
623.24	489.23
623.59	485.97
623.93	482.80
624.28	479.77
624.62	476.90
624.97	474.09
625.32	471.17
625.66	468.23
626.01	465.24
626.35	462.44
626.70	459.58
627.04	456.95
627.39	454.27
627.73	451.66
628.08	449.09
628.43	446.56
628.77	443.96
629.12	441.46
629.46	439.09
629.81	436.87
630.15	434.56
630.50	432.28
630.84	430.05
631.19	427.87
631.53	425.77
631.88	423.51
632.22	421.33
632.57	419.48
632.91	417.56
633.26	415.73
633.60	413.91
633.95	412.18
634.29	410.30
634.64	408.50
634.98	406.60
635.32	404.88
635.67	403.32
636.01	401.75
636.36	400.24
636.70	398.80
637.05	397.20
637.39	395.76
637.73	394.32
638.08	392.95
638.42	391.62
638.77	390.16
639.11	388.68
639.45	387.24
639.80	385.76
640.14	384.37
640.49	382.95
640.83	381.55
641.17	380.21
641.52	378.90
641.86	377.63
642.20	376.50
642.55	375.20
642.89	373.90
643.23	372.69
643.58	371.61
643.92	370.36
644.26	369.21
644.61	368.11
644.95	366.96
645.29	365.74
645.64	364.51
645.98	363.41
646.32	362.42
646.66	361.37
647.01	360.34
647.35	359.40
647.69	358.44
648.04	357.54
648.38	356.57
648.72	355.66
649.06	354.74
649.41	353.80
649.75	352.91
650.09	352.06
650.43	351.18
650.78	350.25
651.12	349.41
651.46	348.55
651.80	347.72
652.14	346.94
652.49	346.23
652.83	345.46
653.17	344.65
653.51	343.87
653.85	343.20
654.20	342.49
654.54	341.67
654.88	340.90
655.22	340.19
655.56	339.46
655.90	338.76
656.25	338.06
656.59	337.40
656.93	336.76
657.27	336.17
657.61	335.51
657.95	334.90
658.29	334.27
658.64	333.66
658.98	333.00
659.32	332.35
659.66	331.73
660.00	331.16
660.34	330.59
660.68	329.98
661.02	329.30
661.36	328.66
661.70	328.08
662.05	327.51
662.39	326.95
662.73	326.47
663.07	326.03
663.41	325.55
663.75	325.01
664.09	324.48
664.43	323.83
664.77	323.28
665.11	322.69
665.45	322.16
665.79	321.65
666.13	321.12
666.47	320.56
666.81	319.99
667.15	319.38
667.49	318.90
667.83	318.46
668.17	318.00
668.51	317.58
668.85	317.18
669.19	316.82
669.53	316.29
669.87	315.74
670.21	315.18
670.55	314.65
670.89	314.25
671.23	313.79
671.57	313.39
671.91	313.04
672.25	312.70
672.58	312.36
672.92	311.92
673.26	311.58
673.60	311.23
673.94	310.87
674.28	310.54
674.62	310.17
674.96	309.74
675.30	309.36
675.64	308.92
675.97	308.46
676.31	307.98
676.65	307.57
676.99	307.25
677.33	306.81
677.67	306.43
678.01	305.94
678.34	305.54
678.68	305.15
679.02	304.70
679.36	304.25
679.70	303.80
680.04	303.40
680.37	302.98
680.71	302.59
681.05	302.23
681.39	301.81
681.73	301.34
682.06	300.92
682.40	300.53
682.74	300.17
683.08	299.88
683.42	299.49
683.75	299.15
684.09	298.69
684.43	298.30
684.77	297.90
685.10	297.52
685.44	297.11
685.78	296.70
686.12	296.31
686.45	295.89
686.79	295.45
687.13	295.04
687.46	294.60
687.80	294.19
688.14	293.71
688.48	293.29
688.81	292.86
689.15	292.50
689.49	292.04
689.82	291.60
690.16	291.05
690.50	290.60
690.83	290.14
691.17	289.69
691.51	289.25
691.84	288.86
692.18	288.42
692.52	287.96
692.85	287.52
693.19	287.14
693.52	286.71
693.86	286.27
694.20	285.84
694.53	285.41
694.87	284.93
695.21	284.48
695.54	284.04
695.88	283.58
696.21	283.08
696.55	282.64
696.88	282.19
697.22	281.77
697.56	281.35
697.89	280.88
698.23	280.46
698.56	280.01
698.90	279.59
699.23	279.12
699.57	278.71
699.90	278.27
700.24	277.80
700.58	277.39
700.91	277.02
701.25	276.77
701.58	276.45
701.92	276.10
702.25	275.72
702.59	275.31
702.92	274.92
703.26	274.51
703.59	274.09
703.93	273.82
704.26	273.43
704.60	273.01
704.93	272.61
705.26	272.19
705.60	271.84
705.93	271.38
706.27	271.07
706.60	270.73
706.94	270.40
707.27	269.98
707.61	269.59
707.94	269.17
708.27	268.61
708.61	268.15
708.94	267.71
709.28	267.32
709.61	266.94
709.94	266.59
710.28	266.26
710.61	265.92
710.95	265.41
711.28	265.17
711.61	264.80
711.95	264.49
712.28	264.13
712.61	263.75
712.95	263.50
713.28	263.20
713.61	262.81
713.95	262.42
714.28	262.10
714.61	261.73
714.95	261.40
715.28	261.05
715.61	260.74
715.95	260.44
716.28	260.12
716.61	259.83
716.95	259.50
717.28	259.17
717.61	258.85
717.94	258.56
718.28	258.14
718.61	257.84
718.94	257.51
719.27	257.21
719.61	256.94
719.94	256.62
720.27	256.24
720.60	255.96
720.94	255.67
721.27	255.40
721.60	255.16
721.93	254.88
722.27	254.65
722.60	254.38
722.93	254.07
723.26	253.82
723.59	253.52
723.93	253.28
724.26	253.04
724.59	252.77
724.92	252.52
725.25	252.33
725.59	252.08
725.92	251.85
726.25	251.61
726.58	251.36
726.91	251.10
727.24	250.89
727.57	250.64
727.91	250.37
728.24	250.17
728.57	249.93
728.90	249.71
729.23	249.43
729.56	249.29
729.89	249.08
730.22	248.84
730.55	248.63
730.89	248.41
731.22	248.18
731.55	247.97
731.88	247.76
732.21	247.52
732.54	247.30
732.87	247.10
733.20	246.92
733.53	246.73
733.86	246.56
734.19	246.34
734.52	246.18
734.85	246.14
735.18	245.91
735.51	245.78
735.84	245.61
736.17	245.49
736.50	245.21
736.83	245.24
737.16	245.07
737.49	244.89
737.82	244.70
738.15	244.54
738.48	244.35
738.81	244.17
739.14	243.97
739.47	243.79
739.80	243.61
740.13	243.44
740.46	243.24
740.79	243.03
741.12	242.85
741.45	242.64
741.78	242.37
742.11	242.25
742.44	242.02
742.77	241.88
743.10	241.67
743.43	241.51
743.75	241.16
744.08	241.27
744.41	241.10
744.74	240.94
745.07	240.75
745.40	240.65
745.73	240.58
746.06	240.45
746.39	240.34
746.71	240.19
747.04	240.03
747.37	239.88
747.70	239.77
748.03	239.64
748.36	239.54
748.68	239.40
749.01	239.22
749.34	239.10
749.67	238.96
750.00	238.86
750.33	238.86
750.65	238.75
750.98	238.36
751.31	238.25
751.64	238.15
751.97	238.13
752.29	237.98
752.62	237.77
752.95	237.63
753.28	237.49
753.60	237.35
753.93	237.27
754.26	237.17
754.59	237.00
754.91	236.87
755.24	236.73
755.57	236.62
755.90	236.49
756.22	236.35
756.55	236.21
756.88	236.05
757.20	235.82
757.53	235.66
757.86	235.54
758.19	235.44
758.51	235.32
758.84	235.13
759.17	235.01
759.49	234.92
759.82	234.91
760.15	234.82
760.47	234.73
760.80	234.58
761.13	234.51
761.45	234.42
761.78	234.34
762.11	234.25
762.43	234.13
762.76	234.05
763.08	233.98
763.41	233.91
763.74	233.84
764.06	233.75
764.39	233.67
764.71	233.59
765.04	233.49
765.37	233.39
765.69	233.30
766.02	233.22
766.34	233.12
766.67	232.97
767.00	232.93
767.32	232.95
767.65	232.99
767.97	232.89
768.30	232.83
768.62	232.76
768.95	232.66
769.27	232.59
769.60	232.56
769.92	232.46
770.25	232.35
770.57	232.25
770.90	232.19
771.22	232.12
771.55	232.06
771.87	232.01
772.20	231.95
772.52	232.04
772.85	232.20
773.17	232.15
773.50	232.07
773.82	231.98
774.15	231.84
774.47	231.66
774.80	231.60
775.12	231.54
775.45	231.49
775.77	231.45
776.09	231.41
776.42	231.35
776.74	231.36
777.07	231.31
777.39	231.28
777.72	231.22
778.04	231.19
778.36	231.13
778.69	231.08
779.01	231.05
779.33	230.85
779.66	230.61
779.98	230.55
780.31	230.52
780.63	230.55
780.95	230.54
781.28	230.50
781.60	230.44
781.92	230.40
782.25	230.36
782.57	230.32
782.89	230.27
783.22	230.22
783.54	230.14
783.86	230.12
784.19	230.08
784.51	230.09
784.83	230.03
785.16	229.99
785.48	229.96
785.80	229.92
786.12	229.90
786.45	229.86
786.77	229.84
787.09	229.80
787.42	229.70
787.74	229.67
788.06	229.65
788.38	229.61
788.71	229.57
789.03	229.54
789.35	229.54
789.67	229.48
789.99	229.46
790.32	229.41
790.64	229.40
790.96	229.54
791.28	229.45
791.61	229.41
791.93	229.40
792.25	229.35
792.57	229.45
792.89	229.40
793.21	229.38
793.54	229.34
793.86	229.29
794.18	229.27
794.50	229.21
794.82	229.18
795.14	229.19
795.47	229.20
795.79	229.17
796.11	229.11
796.43	229.08
796.75	229.05
797.07	229.04
797.39	229.00
797.71	228.83
798.04	228.81
798.36	228.80
798.68	228.77
799.00	228.76
799.32	228.65
799.64	228.66
799.96	228.63
800.28	228.64
800.60	228.62
800.92	228.61
801.24	228.58
801.56	228.58
801.89	228.54
802.21	228.52
802.53	228.47
802.85	228.49
803.17	228.56
803.49	228.51
803.81	228.47
804.13	228.44
804.45	228.40
804.77	228.40
805.09	228.37
805.41	228.34
805.73	228.29
806.05	228.23
806.37	228.19
806.69	228.16
807.01	228.12
807.33	228.12
807.65	228.03
807.97	228.09
808.28	228.05
808.60	228.03
808.92	227.99
809.24	228.08
809.56	228.03
809.88	227.95
810.20	227.95
810.52	227.97
810.84	227.94
811.16	227.91
811.48	227.88
811.80	227.92
812.12	227.91
812.43	227.92
812.75	227.92
813.07	227.90
813.39	227.89
813.71	227.85
814.03	227.82
814.35	227.82
814.67	227.74
814.98	227.72
815.30	227.70
815.62	227.67
815.94	227.53
816.26	227.54
816.58	227.50
816.89	227.49
817.21	227.43
817.53	227.43
817.85	227.43
818.17	227.42
818.48	227.34
818.80	227.36
819.12	227.32
819.44	227.28
819.76	227.25
820.07	227.23
820.39	227.22
820.71	227.24
821.03	227.23
821.34	227.20
821.66	227.21
821.98	227.21
822.30	227.19
822.61	227.30
822.93	227.26
823.25	227.25
823.57	227.22
823.88	227.24
824.20	227.22
824.52	227.24
824.83	227.22
825.15	227.19
825.47	227.17
825.79	227.18
826.10	227.16
826.42	227.15
826.74	227.15
827.05	227.14
827.37	227.13
827.69	227.11
828.00	227.11
828.32	227.10
828.64	227.07
828.95	227.16
829.27	227.09
829.58	227.08
829.90	227.11
830.22	227.11
830.53	227.08
830.85	227.05
831.17	226.99
831.48	226.99
831.80	226.99
832.11	226.97
832.43	226.94
832.75	226.93
833.06	227.03
833.38	226.98
833.69	226.97
834.01	226.97
834.32	226.96
834.64	226.94
834.96	226.93
835.27	226.93
835.59	226.86
835.90	226.83
836.22	226.82
836.53	226.78
836.85	226.75
837.16	226.93
837.48	226.93
837.79	226.98
838.11	226.98
838.42	226.98
838.74	227.00
839.05	226.97
839.37	226.97
839.68	226.85
840.00	226.83
840.31	226.85
840.63	226.83
840.94	226.81
841.26	226.79
841.57	226.78
841.88	226.79
842.20	226.75
842.51	226.72
842.83	226.72
843.14	226.87
843.46	226.87
843.77	226.75
844.08	226.74
844.40	226.68
844.71	226.66
845.03	226.64
845.34	226.62
845.65	226.62
845.97	226.62
846.28	226.63
846.60	226.64
846.91	226.61
847.22	226.60
847.54	226.64
847.85	226.65
848.16	226.64
848.48	226.60
848.79	226.67
849.10	226.69
849.42	226.70
849.73	226.52
850.04	226.52
850.36	226.45
850.67	226.48
850.98	226.48
851.30	226.49
851.61	226.49
851.92	226.48
852.23	226.53
852.55	226.53
852.86	226.53
853.17	226.54
853.49	226.57
853.80	226.60
854.11	226.61
854.42	226.62
854.74	226.60
855.05	226.61
855.36	226.51
855.67	226.51
855.99	226.50
856.30	226.72
856.61	226.71
856.92	226.71
857.23	226.71
857.55	226.69
857.86	226.68
858.17	226.70
858.48	226.66
858.79	226.62
859.11	226.63
859.42	226.62
859.73	226.59
860.04	226.58
860.35	226.52
860.66	226.46
860.98	226.46
861.29	226.48
861.60	226.47
861.91	226.51
862.22	226.48
862.53	226.45
862.84	226.24
863.16	226.27
863.47	226.24
863.78	226.21
864.09	226.23
864.40	226.24
864.71	226.24
865.02	226.26
865.33	226.24
865.64	226.21
865.95	226.21
866.27	226.32
866.58	226.29
866.89	226.32
867.20	226.32
867.51	226.29
867.82	226.27
868.13	226.33
868.44	226.29
868.75	226.32
869.06	226.33
869.37	226.35
869.68	226.30
869.99	226.33
870.30	226.34
870.61	226.36
870.92	226.33
871.23	226.31
871.54	226.33
871.85	226.38
872.16	226.40
872.47	226.38
872.78	226.28
873.09	226.30
873.40	226.28
873.71	226.29
874.02	226.31
874.33	226.29
874.64	226.24
874.95	226.27
875.26	226.22
875.56	226.22
875.87	226.20
876.18	226.20
876.49	226.37
876.80	226.35
877.11	226.31
877.42	226.32
877.73	226.33
878.04	226.29
878.35	226.28
878.66	226.28
878.96	226.28
879.27	226.27
879.58	226.26
879.89	226.25
880.20	226.30
880.51	226.28
880.82	226.29
881.12	226.30
881.43	226.25
881.74	226.24
882.05	226.22
882.36	226.23
882.67	226.24
882.97	226.05
883.28	226.04
883.59	226.03
883.90	226.05
884.21	226.07
884.51	226.06
884.82	226.03
885.13	226.03
885.44	226.02
885.74	226.02
886.05	226.01
886.36	226.02
886.67	225.95
886.98	226.05
887.28	226.06
887.59	226.06
887.90	226.07
888.20	226.06
888.51	226.11
888.82	226.07
889.13	226.09
889.43	226.25
889.74	226.24
890.05	226.24
890.35	226.22
890.66	226.18
890.97	226.16
891.28	226.15
891.58	226.15
891.89	226.15
892.20	226.13
892.50	226.11
892.81	226.10
893.12	226.10
893.42	226.01
893.73	226.01
894.04	226.01
894.34	226.02
894.65	226.02
894.95	226.00
895.26	226.00
895.57	226.08
895.87	225.90
896.18	225.93
896.48	225.94
896.79	225.94
897.10	225.96
897.40	225.98
897.71	226.00
898.01	225.98
898.32	226.00
898.63	226.00
898.93	226.01
899.24	226.01
899.54	226.01
899.85	226.01
900.15	226.00
900.46	226.00
900.76	226.01
901.07	226.01
901.38	226.00
901.68	226.02
901.99	225.93
902.29	225.94
902.60	225.93
902.90	225.91
903.21	225.91
903.51	225.89
903.82	225.93
904.12	225.92
904.43	225.93
904.73	225.92
905.03	225.93
905.34	226.10
905.64	226.09
905.95	226.09
906.25	226.08
906.56	226.08
906.86	226.07
907.17	226.06
907.47	226.07
907.77	226.05
908.08	226.01
908.38	226.03
908.69	226.04
908.99	226.07
909.30	226.08
909.60	226.08
909.90	226.08
910.21	226.02
910.51	226.00
910.81	226.00
911.12	226.01
911.42	226.01
911.73	225.82
912.03	225.84
912.33	225.88
912.64	225.86
912.94	225.85
913.24	225.82
913.55	225.80
913.85	225.79
914.15	225.83
914.46	225.85
914.76	225.83
915.06	225.82
915.37	225.78
915.67	225.77
915.97	225.77
916.27	225.74
916.58	225.76
916.88	225.75
917.18	225.74
917.49	225.86
917.79	225.85
918.09	225.88
918.39	225.92
918.70	225.91
919.00	225.92
919.30	226.01
919.60	226.00
919.91	225.99
920.21	226.00
920.51	225.95
920.81	225.94
921.12	225.98
921.42	225.97
921.72	225.99
922.02	226.00
922.32	226.02
922.63	226.03
922.93	226.13
923.23	226.14
923.53	226.12
923.83	226.00
924.13	226.02
924.44	226.02
924.74	226.04
925.04	226.07
925.34	226.07
925.64	225.99
925.94	225.99
926.24	226.09
926.55	226.08
926.85	226.11
927.15	226.10
927.45	226.10
927.75	226.10
928.05	226.09
928.35	226.08
928.65	226.10
928.95	226.12
929.26	226.03
929.56	226.06
929.86	226.09
930.16	226.07
930.46	226.05
930.76	226.06
931.06	225.98
931.36	225.93
931.66	225.96
931.96	225.99
932.26	226.00
932.56	225.92
932.86	225.94
933.16	225.93
933.46	225.92
933.76	225.89
934.06	225.92
934.36	225.98
934.66	225.97
934.96	225.95
935.26	225.96
935.56	225.99
935.86	225.94
936.16	225.91
936.46	225.90
936.76	225.89
937.06	225.86
937.36	225.87
937.66	225.88
937.96	225.87
938.26	225.82
938.56	225.81
938.86	225.83
939.16	225.86
939.46	225.88
939.76	225.89
940.06	225.89
940.35	225.86
940.65	225.76
940.95	225.78
941.25	225.74
941.55	225.72
941.85	225.70
942.15	225.74
942.45	225.80
942.75	225.79
943.04	225.80
943.34	225.84
943.64	225.82
943.94	225.80
944.24	225.80
944.54	225.81
944.84	225.81
945.13	225.78
945.43	225.75
945.73	225.73
946.03	225.72
946.33	225.70
946.62	225.69
946.92	225.69
947.22	225.70
947.52	225.71
947.82	225.74
948.11	225.72
948.41	225.68
948.71	225.63
949.01	225.64
949.31	225.62
949.60	225.60
949.90	225.63
950.20	225.63
950.50	225.62
950.79	225.60
951.09	225.63
951.39	225.62
951.69	225.60
951.98	225.64
952.28	225.64
952.58	225.64
952.87	225.65
953.17	225.68
953.47	225.66
953.76	225.65
954.06	225.61
954.36	225.58
954.66	225.58
954.95	225.63
955.25	225.64
955.55	225.66
955.84	225.62
956.14	225.63
956.44	225.65
956.73	225.63
957.03	225.65
957.32	225.65
957.62	225.64
957.92	225.68
958.21	225.66
958.51	225.87
958.81	225.89
959.10	225.90
959.40	225.93
959.69	225.95
959.99	225.97
960.29	225.99
960.58	225.99
960.88	226.06
961.17	226.04
961.47	226.05
961.76	226.03
962.06	226.07
962.36	226.05
962.65	226.05
962.95	226.07
963.24	226.04
963.54	226.04
963.83	226.06
964.13	226.05
964.42	226.03
964.72	225.89
965.01	225.88
965.31	225.87
965.60	225.83
965.90	225.94
966.19	225.90
966.49	225.90
966.78	225.90
967.08	225.88
967.37	225.89
967.67	225.85
967.96	225.88
968.26	225.87
968.55	225.90
968.85	225.89
969.14	225.89
969.43	225.89
969.73	225.88
970.02	225.86
970.32	225.85
970.61	225.83
970.91	225.77
971.20	225.75
971.49	225.74
971.79	225.76
972.08	225.63
972.38	225.66
972.67	225.65
972.96	225.68
973.26	225.64
973.55	225.69
973.85	225.69
974.14	225.67
974.43	225.68
974.73	225.65
975.02	225.64
975.31	225.64
975.61	225.63
975.90	225.62
976.19	225.60
976.49	225.62
976.78	225.63
977.07	225.63
977.37	225.64
977.66	225.66
977.95	225.64
978.24	225.66
978.54	225.69
978.83	225.68
979.12	225.66
979.42	225.66
979.71	225.62
980.00	225.63
980.29	225.63
980.59	225.60
980.88	225.64
981.17	225.65
981.46	225.64
981.76	225.65
982.05	225.70
982.34	225.72
982.63	225.72
982.93	225.72
983.22	225.77
983.51	225.77
983.80	225.79
984.09	225.81
984.39	225.80
984.68	225.77
984.97	225.78
985.26	225.77
985.55	225.78
985.85	225.75
986.14	225.78
986.43	225.80
986.72	225.79
987.01	225.73
987.30	225.73
987.59	225.72
987.89	225.73
988.18	225.67
988.47	225.66
988.76	225.64
989.05	225.63
989.34	225.60
989.63	225.64
989.92	225.61
990.22	225.58
990.51	225.58
990.80	225.56
991.09	225.58
991.38	225.61
991.67	225.59
991.96	225.57
992.25	225.57
992.54	225.53
992.83	225.54
993.12	225.54
993.41	225.57
993.70	225.65
993.99	225.67
994.28	225.70
994.58	225.73
994.87	225.71
995.16	225.71
995.45	225.70
995.74	225.63
996.03	225.66
996.32	225.69
996.61	225.72
996.90	225.72
997.19	225.70
997.48	225.70
997.77	225.68
998.06	225.70
998.34	225.68
998.63	225.69
998.92	225.70
999.21	225.72
999.50	225.72
999.79	225.65
1000.08	225.63
1000.37	225.63
1000.66	225.60
1000.95	225.64
1001.24	225.65
1001.53	225.68
1001.82	225.68
1002.11	225.64
1002.40	225.65
1002.68	225.68
1002.97	225.81
1003.26	225.79
1003.55	225.77
1003.84	225.79
1004.13	225.84
1004.42	225.84
1004.71	225.83
1004.99	225.82
1005.28	225.86
1005.57	225.85
1005.86	225.84
1006.15	225.83
1006.44	225.80
1006.72	225.82
1007.01	225.79
1007.30	225.79
1007.59	225.78
1007.88	225.78
1008.17	225.79
1008.45	225.75
1008.74	225.68
1009.03	225.60
1009.32	225.61
1009.60	225.60
1009.89	225.59
1010.18	225.51
1010.47	225.50
1010.76	225.50
1011.04	225.49
1011.33	225.49
1011.62	225.49
1011.91	225.51
1012.19	225.52
1012.48	225.53
1012.77	225.53
1013.05	225.60
1013.34	225.60
1013.63	225.59
1013.92	225.59
1014.20	225.58
1014.49	225.59
1014.78	225.61
1015.06	225.55
1015.35	225.55
1015.64	225.58
1015.92	225.60
1016.21	225.62
1016.50	225.63
1016.78	225.65
1017.07	225.66
1017.36	225.62
1017.64	225.60
1017.93	225.61
1018.22	225.60
1018.50	225.59
1018.79	225.58
1019.08	225.51
1019.36	225.52
1019.65	225.50
1019.93	225.55
1020.22	225.58
1020.51	225.67
1020.79	225.64
1021.08	225.31
1021.36	225.29
1021.65	225.56
1021.94	225.38
1022.22	225.67
1022.51	225.22
1022.79	226.40
1023.08	225.85
1023.36	227.73
1023.65	225.10
>>>>>End Processed Spectral Data<<<<<
