SpectraSuite Data File
++++++++++++++++++++++++++++++++++++
Date: Tue Oct 06 16:57:55 EDT 2015
User: lab3
Dark Spectrum Present: No
Reference Spectrum Present: No
Number of Sampled Component Spectra: 1
Spectrometers: USB2E7196
Integration Time (usec): 66000 (USB2E7196)
Spectra Averaged: 1000 (USB2E7196)
Boxcar Smoothing: 10 (USB2E7196)
Correct for Electrical Dark: No (USB2E7196)
Strobe/Lamp Enabled: No (USB2E7196)
Correct for Detector Non-linearity: No (USB2E7196)
Correct for Stray Light: No (USB2E7196)
Number of Pixels in Processed Spectrum: 2048
>>>>>Begin Processed Spectral Data<<<<<
339.09	0.00
339.48	215.28
339.86	216.76
340.24	218.04
340.63	219.48
341.01	223.49
341.39	222.18
341.78	223.71
342.16	224.93
342.54	225.25
342.93	213.74
343.31	224.53
343.69	225.07
344.07	225.53
344.46	225.98
344.84	226.38
345.22	226.58
345.60	226.86
345.99	227.08
346.37	227.22
346.75	227.35
347.13	227.43
347.52	227.52
347.90	227.63
348.28	227.69
348.66	227.78
349.05	227.77
349.43	227.86
349.81	227.93
350.19	228.00
350.57	228.09
350.96	228.19
351.34	228.30
351.72	228.40
352.10	228.52
352.48	228.60
352.87	228.65
353.25	228.74
353.63	228.79
354.01	228.86
354.39	228.92
354.77	229.00
355.15	229.14
355.54	229.18
355.92	229.20
356.30	229.27
356.68	229.45
357.06	229.53
357.44	229.56
357.82	229.62
358.20	229.84
358.58	229.90
358.97	229.97
359.35	230.07
359.73	230.18
360.11	230.24
360.49	230.30
360.87	230.36
361.25	230.42
361.63	230.53
362.01	230.59
362.39	230.63
362.77	230.68
363.15	230.69
363.53	230.73
363.91	230.78
364.29	230.81
364.67	230.66
365.05	230.68
365.43	230.72
365.81	230.75
366.19	230.70
366.57	230.78
366.95	230.78
367.33	230.73
367.71	230.73
368.09	230.76
368.47	230.75
368.85	230.75
369.23	230.77
369.61	230.68
369.99	230.72
370.37	230.73
370.75	230.85
371.13	230.82
371.51	230.77
371.89	230.75
372.27	230.73
372.65	230.72
373.03	230.69
373.41	230.63
373.78	230.58
374.16	230.45
374.54	230.34
374.92	230.28
375.30	230.24
375.68	230.15
376.06	230.11
376.44	230.04
376.82	230.00
377.19	229.96
377.57	229.91
377.95	229.79
378.33	229.72
378.71	229.52
379.09	229.48
379.47	229.46
379.84	229.39
380.22	229.33
380.60	229.25
380.98	229.20
381.36	229.16
381.73	229.10
382.11	229.08
382.49	229.06
382.87	228.99
383.25	228.95
383.62	229.12
384.00	229.04
384.38	229.02
384.76	229.01
385.13	229.03
385.51	229.00
385.89	228.95
386.27	228.92
386.64	228.92
387.02	228.86
387.40	228.81
387.78	228.80
388.15	228.78
388.53	228.77
388.91	228.74
389.29	228.70
389.66	228.71
390.04	228.67
390.42	228.67
390.79	228.67
391.17	228.66
391.55	228.44
391.92	228.44
392.30	228.45
392.68	228.41
393.05	228.38
393.43	228.38
393.81	228.39
394.18	228.38
394.56	228.38
394.94	228.44
395.31	228.46
395.69	228.53
396.06	228.57
396.44	228.60
396.82	228.62
397.19	228.77
397.57	228.79
397.95	228.86
398.32	228.86
398.70	228.93
399.07	229.03
399.45	229.09
399.82	229.16
400.20	229.21
400.58	229.30
400.95	229.33
401.33	229.45
401.70	229.67
402.08	229.82
402.45	229.94
402.83	230.11
403.20	230.28
403.58	230.40
403.95	230.60
404.33	230.83
404.71	231.06
405.08	231.35
405.46	231.60
405.83	231.88
406.21	232.18
406.58	232.51
406.96	232.84
407.33	233.21
407.70	233.64
408.08	234.22
408.45	234.71
408.83	235.27
409.20	235.78
409.58	236.25
409.95	236.87
410.33	237.55
410.70	238.19
411.08	238.95
411.45	239.76
411.82	240.60
412.20	241.52
412.57	242.62
412.95	243.52
413.32	244.67
413.69	245.85
414.07	247.11
414.44	248.49
414.82	249.89
415.19	251.53
415.56	253.21
415.94	254.96
416.31	256.91
416.68	258.86
417.06	261.13
417.43	263.25
417.81	265.70
418.18	268.21
418.55	270.93
418.93	273.77
419.30	276.74
419.67	279.89
420.04	283.14
420.42	286.54
420.79	290.44
421.16	294.37
421.54	298.37
421.91	302.56
422.28	306.91
422.66	311.59
423.03	316.04
423.40	320.71
423.77	325.71
424.15	330.85
424.52	336.16
424.89	341.91
425.26	347.61
425.64	352.90
426.01	358.85
426.38	364.94
426.75	371.20
427.13	377.60
427.50	384.30
427.87	391.23
428.24	398.24
428.61	404.97
428.99	412.20
429.36	420.17
429.73	427.76
430.10	435.34
430.47	443.09
430.85	451.09
431.22	459.62
431.59	468.39
431.96	476.92
432.33	486.44
432.70	495.48
433.08	506.17
433.45	516.28
433.82	526.27
434.19	537.42
434.56	548.42
434.93	559.13
435.30	569.69
435.68	581.74
436.05	593.48
436.42	605.24
436.79	616.01
437.16	627.68
437.53	640.15
437.90	652.61
438.27	664.88
438.64	678.14
439.01	690.20
439.38	701.24
439.75	711.92
440.13	724.06
440.50	735.64
440.87	744.90
441.24	755.07
441.61	766.16
441.98	774.39
442.35	784.14
442.72	794.05
443.09	803.52
443.46	809.65
443.83	814.33
444.20	818.21
444.57	823.81
444.94	827.12
445.31	830.56
445.68	833.51
446.05	835.71
446.42	835.38
446.79	834.77
447.16	834.32
447.53	833.91
447.90	830.31
448.27	826.86
448.64	821.45
449.01	817.71
449.37	809.98
449.74	802.98
450.11	793.93
450.48	784.00
450.85	774.01
451.22	765.42
451.59	756.96
451.96	749.32
452.33	738.27
452.70	728.45
453.07	716.54
453.43	704.66
453.80	693.06
454.17	681.93
454.54	671.68
454.91	660.10
455.28	649.17
455.65	638.87
456.02	627.94
456.38	619.18
456.75	607.95
457.12	598.91
457.49	589.77
457.86	581.12
458.23	573.48
458.59	565.12
458.96	556.50
459.33	548.97
459.70	541.25
460.07	535.36
460.43	528.43
460.80	521.96
461.17	516.31
461.54	510.25
461.91	504.57
462.27	498.78
462.64	494.03
463.01	488.64
463.38	483.18
463.74	478.28
464.11	473.90
464.48	469.97
464.85	465.72
465.21	462.45
465.58	458.82
465.95	454.72
466.32	451.44
466.68	448.27
467.05	444.99
467.42	441.86
467.78	438.50
468.15	435.41
468.52	433.13
468.88	430.13
469.25	427.37
469.62	425.19
469.98	422.83
470.35	420.72
470.72	418.79
471.08	416.87
471.45	415.24
471.82	413.43
472.18	411.53
472.55	410.30
472.92	408.75
473.28	407.56
473.65	406.29
474.02	405.06
474.38	404.00
474.75	403.40
475.11	402.57
475.48	402.17
475.85	401.74
476.21	401.50
476.58	401.31
476.94	401.50
477.31	401.56
477.67	401.63
478.04	401.94
478.41	402.38
478.77	403.00
479.14	403.39
479.50	404.19
479.87	405.21
480.23	406.19
480.60	407.16
480.96	408.10
481.33	409.57
481.69	411.00
482.06	412.41
482.42	413.70
482.79	415.33
483.15	417.24
483.52	419.36
483.88	421.39
484.25	423.54
484.61	425.79
484.98	428.22
485.34	430.95
485.71	433.81
486.07	436.87
486.44	439.90
486.80	443.30
487.17	446.78
487.53	450.53
487.90	454.50
488.26	458.81
488.62	463.36
488.99	467.89
489.35	472.64
489.72	477.73
490.08	483.11
490.44	488.58
490.81	494.31
491.17	500.22
491.54	506.53
491.90	512.98
492.26	519.87
492.63	527.09
492.99	534.65
493.36	542.36
493.72	550.43
494.08	558.72
494.45	567.39
494.81	576.44
495.17	585.79
495.54	595.58
495.90	605.85
496.26	616.27
496.63	626.95
496.99	638.07
497.35	649.68
497.72	661.60
498.08	673.84
498.44	686.38
498.80	699.60
499.17	713.12
499.53	727.09
499.89	741.50
500.26	756.06
500.62	770.98
500.98	786.73
501.34	802.51
501.71	819.07
502.07	835.91
502.43	853.23
502.79	870.70
503.16	888.72
503.52	906.88
503.88	925.49
504.24	944.53
504.60	963.78
504.97	983.65
505.33	1003.97
505.69	1025.32
506.05	1046.84
506.41	1068.26
506.78	1089.78
507.14	1111.91
507.50	1134.48
507.86	1157.43
508.22	1180.53
508.59	1203.48
508.95	1227.46
509.31	1251.87
509.67	1276.94
510.03	1301.89
510.39	1326.75
510.75	1351.69
511.12	1376.91
511.48	1402.26
511.84	1427.57
512.20	1453.18
512.56	1479.88
512.92	1506.31
513.28	1532.11
513.64	1558.25
514.00	1584.71
514.37	1611.46
514.73	1638.14
515.09	1664.11
515.45	1690.40
515.81	1716.85
516.17	1742.97
516.53	1768.37
516.89	1793.61
517.25	1819.11
517.61	1844.38
517.97	1870.24
518.33	1895.38
518.69	1920.53
519.05	1946.04
519.41	1971.62
519.77	1997.17
520.13	2021.12
520.49	2045.19
520.85	2069.58
521.21	2093.44
521.57	2117.53
521.93	2140.53
522.29	2164.17
522.65	2187.56
523.01	2210.65
523.37	2233.04
523.73	2256.11
524.09	2278.92
524.45	2301.30
524.81	2322.97
525.17	2344.41
525.53	2365.13
525.89	2386.25
526.25	2406.86
526.61	2425.95
526.97	2445.07
527.33	2463.94
527.68	2482.55
528.04	2500.77
528.40	2517.66
528.76	2534.73
529.12	2551.34
529.48	2568.54
529.84	2582.99
530.20	2597.88
530.56	2611.85
530.91	2626.01
531.27	2639.60
531.63	2652.27
531.99	2664.68
532.35	2676.76
532.71	2688.44
533.07	2700.39
533.42	2710.52
533.78	2720.80
534.14	2731.95
534.50	2741.95
534.86	2752.58
535.21	2761.18
535.57	2769.46
535.93	2777.68
536.29	2784.18
536.65	2790.44
537.00	2795.32
537.36	2801.48
537.72	2806.66
538.08	2811.29
538.44	2814.83
538.79	2818.15
539.15	2820.17
539.51	2821.52
539.87	2821.66
540.22	2820.31
540.58	2819.22
540.94	2818.93
541.29	2817.56
541.65	2814.81
542.01	2811.77
542.37	2807.08
542.72	2803.80
543.08	2799.10
543.44	2794.61
543.79	2789.57
544.15	2783.91
544.51	2778.37
544.87	2771.88
545.22	2764.56
545.58	2757.12
545.94	2749.85
546.29	2741.16
546.65	2732.76
547.01	2724.39
547.36	2716.50
547.72	2708.76
548.07	2699.39
548.43	2688.90
548.79	2678.24
549.14	2667.90
549.50	2657.67
549.86	2646.58
550.21	2634.12
550.57	2622.63
550.92	2609.42
551.28	2596.77
551.64	2584.36
551.99	2571.68
552.35	2558.71
552.70	2545.53
553.06	2532.82
553.41	2519.82
553.77	2506.44
554.13	2493.16
554.48	2478.91
554.84	2463.86
555.19	2449.39
555.55	2434.79
555.90	2420.66
556.26	2406.81
556.61	2391.94
556.97	2376.16
557.32	2360.83
557.68	2345.76
558.03	2330.44
558.39	2316.04
558.74	2302.28
559.10	2286.74
559.45	2271.51
559.81	2256.82
560.16	2241.95
560.52	2226.89
560.87	2211.89
561.23	2196.66
561.58	2181.87
561.94	2166.74
562.29	2151.24
562.64	2135.80
563.00	2120.56
563.35	2105.49
563.71	2090.08
564.06	2074.86
564.42	2060.17
564.77	2045.56
565.12	2030.66
565.48	2015.60
565.83	2000.76
566.19	1985.86
566.54	1971.32
566.89	1956.16
567.25	1940.98
567.60	1926.54
567.96	1911.40
568.31	1895.20
568.66	1879.89
569.02	1865.16
569.37	1850.85
569.72	1837.14
570.08	1823.07
570.43	1808.44
570.78	1793.68
571.14	1778.78
571.49	1763.88
571.84	1749.31
572.20	1733.64
572.55	1718.74
572.90	1703.93
573.26	1689.19
573.61	1673.84
573.96	1658.96
574.31	1644.00
574.67	1628.86
575.02	1613.49
575.37	1598.20
575.72	1583.58
576.08	1568.82
576.43	1553.42
576.78	1538.26
577.13	1523.29
577.49	1508.53
577.84	1494.18
578.19	1479.41
578.54	1464.70
578.90	1449.98
579.25	1435.08
579.60	1421.34
579.95	1407.37
580.30	1393.37
580.66	1379.08
581.01	1364.88
581.36	1350.82
581.71	1337.52
582.06	1324.20
582.42	1310.73
582.77	1297.73
583.12	1284.93
583.47	1272.09
583.82	1259.45
584.17	1246.41
584.53	1233.41
584.88	1220.73
585.23	1207.94
585.58	1195.48
585.93	1182.97
586.28	1171.39
586.63	1159.67
586.98	1147.59
587.34	1135.89
587.69	1123.95
588.04	1112.38
588.39	1101.10
588.74	1089.46
589.09	1077.97
589.44	1066.24
589.79	1055.07
590.14	1043.92
590.49	1032.84
590.84	1021.98
591.19	1011.36
591.54	1000.87
591.89	990.03
592.25	979.50
592.60	968.87
592.95	958.44
593.30	948.29
593.65	937.87
594.00	927.74
594.35	918.46
594.70	908.51
595.05	899.20
595.40	889.70
595.75	880.05
596.10	870.98
596.45	861.88
596.80	853.14
597.15	844.41
597.50	835.67
597.85	827.16
598.19	818.65
598.54	810.15
598.89	802.14
599.24	794.47
599.59	786.61
599.94	779.34
600.29	772.07
600.64	764.69
600.99	757.23
601.34	750.00
601.69	742.28
602.04	735.39
602.39	728.37
602.74	721.57
603.08	714.90
603.43	708.21
603.78	701.49
604.13	694.86
604.48	688.28
604.83	681.91
605.18	675.63
605.53	669.50
605.87	663.28
606.22	657.15
606.57	651.00
606.92	644.81
607.27	638.64
607.62	632.66
607.96	626.91
608.31	621.56
608.66	616.14
609.01	610.96
609.36	605.75
609.70	600.51
610.05	595.30
610.40	590.21
610.75	585.15
611.10	580.27
611.44	575.41
611.79	570.63
612.14	565.82
612.49	561.04
612.83	556.52
613.18	552.08
613.53	547.63
613.88	543.31
614.22	539.30
614.57	535.20
614.92	531.19
615.27	527.32
615.61	523.35
615.96	519.40
616.31	515.47
616.65	511.68
617.00	508.00
617.35	504.33
617.70	500.73
618.04	497.20
618.39	493.78
618.74	490.57
619.08	487.33
619.43	484.17
619.78	480.99
620.12	477.79
620.47	474.78
620.82	471.85
621.16	468.92
621.51	466.04
621.85	463.19
622.20	460.40
622.55	457.57
622.89	454.79
623.24	452.20
623.59	449.64
623.93	447.14
624.28	444.77
624.62	442.62
624.97	440.47
625.32	438.22
625.66	435.93
626.01	433.60
626.35	431.43
626.70	429.20
627.04	427.14
627.39	425.06
627.73	423.05
628.08	421.09
628.43	419.16
628.77	417.12
629.12	415.21
629.46	413.39
629.81	411.70
630.15	409.92
630.50	408.15
630.84	406.44
631.19	404.75
631.53	403.13
631.88	401.32
632.22	399.62
632.57	398.17
632.91	396.71
633.26	395.32
633.60	393.93
633.95	392.62
634.29	391.19
634.64	389.82
634.98	388.32
635.32	386.97
635.67	385.76
636.01	384.57
636.36	383.40
636.70	382.32
637.05	381.06
637.39	379.95
637.73	378.84
638.08	377.78
638.42	376.78
638.77	375.67
639.11	374.50
639.45	373.35
639.80	372.17
640.14	371.06
640.49	369.93
640.83	368.80
641.17	367.70
641.52	366.66
641.86	365.65
642.20	364.80
642.55	363.75
642.89	362.71
643.23	361.73
643.58	360.89
643.92	359.87
644.26	358.95
644.61	358.08
644.95	357.16
645.29	356.16
645.64	355.13
645.98	354.21
646.32	353.40
646.66	352.54
647.01	351.72
647.35	350.96
647.69	350.17
648.04	349.45
648.38	348.69
648.72	347.94
649.06	347.17
649.41	346.35
649.75	345.61
650.09	344.91
650.43	344.16
650.78	343.37
651.12	342.64
651.46	341.90
651.80	341.18
652.14	340.49
652.49	339.88
652.83	339.21
653.17	338.51
653.51	337.82
653.85	337.25
654.20	336.62
654.54	335.90
654.88	335.21
655.22	334.60
655.56	333.93
655.90	333.29
656.25	332.66
656.59	332.04
656.93	331.46
657.27	330.93
657.61	330.33
657.95	329.77
658.29	329.19
658.64	328.64
658.98	328.03
659.32	327.44
659.66	326.88
660.00	326.36
660.34	325.84
660.68	325.28
661.02	324.64
661.36	324.06
661.70	323.51
662.05	322.98
662.39	322.43
662.73	321.98
663.07	321.57
663.41	321.12
663.75	320.61
664.09	320.12
664.43	319.49
664.77	318.97
665.11	318.40
665.45	317.88
665.79	317.38
666.13	316.86
666.47	316.33
666.81	315.77
667.15	315.17
667.49	314.70
667.83	314.28
668.17	313.84
668.51	313.42
668.85	313.02
669.19	312.65
669.53	312.14
669.87	311.60
670.21	311.04
670.55	310.54
670.89	310.15
671.23	309.71
671.57	309.33
671.91	308.96
672.25	308.60
672.58	308.26
672.92	307.82
673.26	307.47
673.60	307.11
673.94	306.73
674.28	306.39
674.62	306.00
674.96	305.56
675.30	305.17
675.64	304.71
675.97	304.25
676.31	303.79
676.65	303.36
676.99	303.03
677.33	302.59
677.67	302.19
678.01	301.71
678.34	301.27
678.68	300.87
679.02	300.42
679.36	299.98
679.70	299.52
680.04	299.14
680.37	298.72
680.71	298.33
681.05	297.97
681.39	297.56
681.73	297.10
682.06	296.67
682.40	296.27
682.74	295.91
683.08	295.61
683.42	295.23
683.75	294.88
684.09	294.40
684.43	294.02
684.77	293.60
685.10	293.21
685.44	292.82
685.78	292.42
686.12	292.02
686.45	291.61
686.79	291.17
687.13	290.76
687.46	290.32
687.80	289.89
688.14	289.41
688.48	288.99
688.81	288.57
689.15	288.22
689.49	287.79
689.82	287.36
690.16	286.82
690.50	286.37
690.83	285.93
691.17	285.50
691.51	285.08
691.84	284.69
692.18	284.26
692.52	283.80
692.85	283.38
693.19	283.03
693.52	282.61
693.86	282.19
694.20	281.77
694.53	281.35
694.87	280.91
695.21	280.48
695.54	280.06
695.88	279.62
696.21	279.13
696.55	278.70
696.88	278.27
697.22	277.88
697.56	277.49
697.89	277.04
698.23	276.65
698.56	276.23
698.90	275.83
699.23	275.41
699.57	275.04
699.90	274.61
700.24	274.15
700.58	273.78
700.91	273.44
701.25	273.22
701.58	272.94
701.92	272.61
702.25	272.25
702.59	271.87
702.92	271.51
703.26	271.13
703.59	270.75
703.93	270.52
704.26	270.15
704.60	269.77
704.93	269.41
705.26	269.01
705.60	268.69
705.93	268.28
706.27	267.99
706.60	267.67
706.94	267.38
707.27	267.01
707.61	266.63
707.94	266.24
708.27	265.72
708.61	265.28
708.94	264.88
709.28	264.53
709.61	264.17
709.94	263.86
710.28	263.55
710.61	263.25
710.95	262.76
711.28	262.56
711.61	262.21
711.95	261.92
712.28	261.58
712.61	261.22
712.95	261.00
713.28	260.75
713.61	260.38
713.95	260.03
714.28	259.74
714.61	259.42
714.95	259.11
715.28	258.81
715.61	258.52
715.95	258.27
716.28	257.97
716.61	257.72
716.95	257.40
717.28	257.11
717.61	256.82
717.94	256.55
718.28	256.15
718.61	255.89
718.94	255.59
719.27	255.34
719.61	255.10
719.94	254.80
720.27	254.44
720.60	254.19
720.94	253.93
721.27	253.69
721.60	253.49
721.93	253.22
722.27	253.03
722.60	252.78
722.93	252.50
723.26	252.27
723.59	251.99
723.93	251.79
724.26	251.58
724.59	251.33
724.92	251.12
725.25	250.95
725.59	250.74
725.92	250.53
726.25	250.30
726.58	250.09
726.91	249.87
727.24	249.67
727.57	249.45
727.91	249.21
728.24	249.00
728.57	248.76
728.90	248.58
729.23	248.31
729.56	248.19
729.89	247.99
730.22	247.79
730.55	247.59
730.89	247.38
731.22	247.17
731.55	246.98
731.88	246.79
732.21	246.57
732.54	246.37
732.87	246.18
733.20	246.02
733.53	245.85
733.86	245.68
734.19	245.48
734.52	245.33
734.85	245.31
735.18	245.12
735.51	245.01
735.84	244.87
736.17	244.77
736.50	244.52
736.83	244.58
737.16	244.41
737.49	244.27
737.82	244.10
738.15	243.96
738.48	243.79
738.81	243.64
739.14	243.46
739.47	243.29
739.80	243.14
740.13	242.99
740.46	242.80
740.79	242.63
741.12	242.48
741.45	242.31
741.78	242.05
742.11	241.94
742.44	241.74
742.77	241.60
743.10	241.43
743.43	241.28
743.75	240.94
744.08	241.07
744.41	240.92
744.74	240.78
745.07	240.62
745.40	240.53
745.73	240.46
746.06	240.35
746.39	240.26
746.71	240.12
747.04	239.99
747.37	239.86
747.70	239.77
748.03	239.66
748.36	239.56
748.68	239.44
749.01	239.28
749.34	239.18
749.67	239.06
750.00	238.98
750.33	239.00
750.65	238.90
750.98	238.53
751.31	238.43
751.64	238.34
751.97	238.33
752.29	238.20
752.62	238.01
752.95	237.90
753.28	237.78
753.60	237.66
753.93	237.60
754.26	237.52
754.59	237.34
754.91	237.22
755.24	237.11
755.57	237.01
755.90	236.90
756.22	236.78
756.55	236.65
756.88	236.51
757.20	236.29
757.53	236.14
757.86	236.05
758.19	235.97
758.51	235.88
758.84	235.70
759.17	235.60
759.49	235.54
759.82	235.53
760.15	235.45
760.47	235.36
760.80	235.22
761.13	235.16
761.45	235.08
761.78	235.00
762.11	234.92
762.43	234.82
762.76	234.73
763.08	234.68
763.41	234.62
763.74	234.56
764.06	234.48
764.39	234.39
764.71	234.31
765.04	234.21
765.37	234.11
765.69	234.03
766.02	233.96
766.34	233.87
766.67	233.73
767.00	233.70
767.32	233.72
767.65	233.77
767.97	233.69
768.30	233.65
768.62	233.58
768.95	233.50
769.27	233.43
769.60	233.39
769.92	233.30
770.25	233.21
770.57	233.12
770.90	233.06
771.22	233.00
771.55	232.95
771.87	232.91
772.20	232.85
772.52	232.95
772.85	233.11
773.17	233.05
773.50	233.00
773.82	232.92
774.15	232.78
774.47	232.62
774.80	232.54
775.12	232.50
775.45	232.45
775.77	232.42
776.09	232.38
776.42	232.35
776.74	232.36
777.07	232.32
777.39	232.28
777.72	232.24
778.04	232.22
778.36	232.17
778.69	232.12
779.01	232.09
779.33	231.90
779.66	231.65
779.98	231.60
780.31	231.57
780.63	231.61
780.95	231.60
781.28	231.56
781.60	231.52
781.92	231.48
782.25	231.44
782.57	231.40
782.89	231.36
783.22	231.31
783.54	231.24
783.86	231.22
784.19	231.18
784.51	231.20
784.83	231.13
785.16	231.10
785.48	231.07
785.80	231.04
786.12	231.02
786.45	230.99
786.77	230.97
787.09	230.92
787.42	230.81
787.74	230.78
788.06	230.77
788.38	230.73
788.71	230.69
789.03	230.66
789.35	230.66
789.67	230.61
789.99	230.59
790.32	230.53
790.64	230.53
790.96	230.67
791.28	230.58
791.61	230.56
791.93	230.53
792.25	230.50
792.57	230.59
792.89	230.55
793.21	230.53
793.54	230.48
793.86	230.45
794.18	230.44
794.50	230.37
794.82	230.34
795.14	230.35
795.47	230.36
795.79	230.34
796.11	230.28
796.43	230.25
796.75	230.23
797.07	230.22
797.39	230.19
797.71	230.01
798.04	230.00
798.36	229.99
798.68	229.98
799.00	229.96
799.32	229.85
799.64	229.87
799.96	229.85
800.28	229.87
800.60	229.86
800.92	229.86
801.24	229.84
801.56	229.83
801.89	229.79
802.21	229.78
802.53	229.72
802.85	229.75
803.17	229.83
803.49	229.77
803.81	229.73
804.13	229.71
804.45	229.67
804.77	229.66
805.09	229.64
805.41	229.62
805.73	229.58
806.05	229.52
806.37	229.49
806.69	229.46
807.01	229.43
807.33	229.42
807.65	229.33
807.97	229.41
808.28	229.37
808.60	229.36
808.92	229.32
809.24	229.42
809.56	229.37
809.88	229.28
810.20	229.29
810.52	229.31
810.84	229.27
811.16	229.25
811.48	229.23
811.80	229.28
812.12	229.26
812.43	229.29
812.75	229.28
813.07	229.26
813.39	229.25
813.71	229.20
814.03	229.17
814.35	229.17
814.67	229.08
814.98	229.07
815.30	229.06
815.62	229.02
815.94	228.89
816.26	228.90
816.58	228.87
816.89	228.87
817.21	228.82
817.53	228.82
817.85	228.83
818.17	228.81
818.48	228.73
818.80	228.76
819.12	228.72
819.44	228.67
819.76	228.64
820.07	228.64
820.39	228.64
820.71	228.65
821.03	228.64
821.34	228.62
821.66	228.63
821.98	228.63
822.30	228.62
822.61	228.73
822.93	228.68
823.25	228.67
823.57	228.64
823.88	228.66
824.20	228.65
824.52	228.67
824.83	228.65
825.15	228.63
825.47	228.59
825.79	228.60
826.10	228.59
826.42	228.58
826.74	228.58
827.05	228.57
827.37	228.57
827.69	228.56
828.00	228.55
828.32	228.54
828.64	228.51
828.95	228.59
829.27	228.52
829.58	228.51
829.90	228.53
830.22	228.54
830.53	228.50
830.85	228.48
831.17	228.43
831.48	228.42
831.80	228.43
832.11	228.42
832.43	228.39
832.75	228.39
833.06	228.49
833.38	228.42
833.69	228.39
834.01	228.40
834.32	228.39
834.64	228.36
834.96	228.35
835.27	228.35
835.59	228.29
835.90	228.25
836.22	228.24
836.53	228.20
836.85	228.18
837.16	228.36
837.48	228.36
837.79	228.41
838.11	228.41
838.42	228.40
838.74	228.41
839.05	228.40
839.37	228.38
839.68	228.27
840.00	228.27
840.31	228.31
840.63	228.29
840.94	228.26
841.26	228.25
841.57	228.25
841.88	228.25
842.20	228.21
842.51	228.18
842.83	228.17
843.14	228.33
843.46	228.31
843.77	228.19
844.08	228.18
844.40	228.12
844.71	228.10
845.03	228.07
845.34	228.06
845.65	228.06
845.97	228.07
846.28	228.07
846.60	228.09
846.91	228.04
847.22	228.04
847.54	228.07
847.85	228.07
848.16	228.06
848.48	228.02
848.79	228.10
849.10	228.12
849.42	228.13
849.73	227.96
850.04	227.97
850.36	227.90
850.67	227.94
850.98	227.94
851.30	227.95
851.61	227.95
851.92	227.94
852.23	227.99
852.55	227.99
852.86	228.00
853.17	228.01
853.49	228.03
853.80	228.05
854.11	228.06
854.42	228.09
854.74	228.07
855.05	228.08
855.36	227.98
855.67	228.00
855.99	227.99
856.30	228.20
856.61	228.19
856.92	228.20
857.23	228.22
857.55	228.20
857.86	228.18
858.17	228.20
858.48	228.18
858.79	228.14
859.11	228.16
859.42	228.13
859.73	228.11
860.04	228.10
860.35	228.05
860.66	228.00
860.98	227.99
861.29	228.02
861.60	228.00
861.91	228.04
862.22	228.00
862.53	227.97
862.84	227.76
863.16	227.79
863.47	227.75
863.78	227.73
864.09	227.75
864.40	227.76
864.71	227.77
865.02	227.79
865.33	227.75
865.64	227.72
865.95	227.72
866.27	227.82
866.58	227.80
866.89	227.83
867.20	227.84
867.51	227.81
867.82	227.79
868.13	227.84
868.44	227.81
868.75	227.85
869.06	227.86
869.37	227.88
869.68	227.83
869.99	227.87
870.30	227.86
870.61	227.88
870.92	227.86
871.23	227.83
871.54	227.86
871.85	227.90
872.16	227.92
872.47	227.90
872.78	227.81
873.09	227.83
873.40	227.80
873.71	227.80
874.02	227.82
874.33	227.81
874.64	227.77
874.95	227.79
875.26	227.75
875.56	227.74
875.87	227.73
876.18	227.73
876.49	227.89
876.80	227.87
877.11	227.83
877.42	227.82
877.73	227.83
878.04	227.78
878.35	227.79
878.66	227.78
878.96	227.79
879.27	227.77
879.58	227.75
879.89	227.75
880.20	227.80
880.51	227.78
880.82	227.76
881.12	227.76
881.43	227.72
881.74	227.71
882.05	227.70
882.36	227.71
882.67	227.72
882.97	227.53
883.28	227.51
883.59	227.50
883.90	227.52
884.21	227.55
884.51	227.54
884.82	227.51
885.13	227.52
885.44	227.51
885.74	227.51
886.05	227.51
886.36	227.51
886.67	227.44
886.98	227.53
887.28	227.56
887.59	227.55
887.90	227.55
888.20	227.53
888.51	227.56
888.82	227.52
889.13	227.53
889.43	227.70
889.74	227.70
890.05	227.70
890.35	227.68
890.66	227.65
890.97	227.63
891.28	227.60
891.58	227.61
891.89	227.60
892.20	227.59
892.50	227.58
892.81	227.57
893.12	227.57
893.42	227.48
893.73	227.48
894.04	227.48
894.34	227.50
894.65	227.52
894.95	227.50
895.26	227.50
895.57	227.59
895.87	227.40
896.18	227.43
896.48	227.44
896.79	227.44
897.10	227.47
897.40	227.49
897.71	227.51
898.01	227.49
898.32	227.52
898.63	227.50
898.93	227.51
899.24	227.52
899.54	227.51
899.85	227.50
900.15	227.49
900.46	227.49
900.76	227.51
901.07	227.51
901.38	227.50
901.68	227.52
901.99	227.43
902.29	227.44
902.60	227.42
902.90	227.40
903.21	227.39
903.51	227.37
903.82	227.40
904.12	227.40
904.43	227.41
904.73	227.40
905.03	227.42
905.34	227.58
905.64	227.57
905.95	227.57
906.25	227.58
906.56	227.58
906.86	227.58
907.17	227.56
907.47	227.57
907.77	227.55
908.08	227.51
908.38	227.53
908.69	227.55
908.99	227.58
909.30	227.59
909.60	227.59
909.90	227.58
910.21	227.53
910.51	227.50
910.81	227.50
911.12	227.50
911.42	227.50
911.73	227.32
912.03	227.33
912.33	227.38
912.64	227.36
912.94	227.34
913.24	227.31
913.55	227.30
913.85	227.28
914.15	227.31
914.46	227.33
914.76	227.30
915.06	227.29
915.37	227.27
915.67	227.26
915.97	227.26
916.27	227.23
916.58	227.25
916.88	227.24
917.18	227.23
917.49	227.35
917.79	227.34
918.09	227.36
918.39	227.41
918.70	227.39
919.00	227.40
919.30	227.47
919.60	227.47
919.91	227.45
920.21	227.46
920.51	227.42
920.81	227.42
921.12	227.45
921.42	227.44
921.72	227.44
922.02	227.45
922.32	227.46
922.63	227.46
922.93	227.57
923.23	227.58
923.53	227.56
923.83	227.44
924.13	227.46
924.44	227.46
924.74	227.48
925.04	227.52
925.34	227.51
925.64	227.44
925.94	227.44
926.24	227.54
926.55	227.52
926.85	227.55
927.15	227.54
927.45	227.53
927.75	227.54
928.05	227.53
928.35	227.53
928.65	227.56
928.95	227.58
929.26	227.49
929.56	227.51
929.86	227.53
930.16	227.52
930.46	227.49
930.76	227.50
931.06	227.41
931.36	227.37
931.66	227.40
931.96	227.42
932.26	227.43
932.56	227.36
932.86	227.38
933.16	227.39
933.46	227.37
933.76	227.35
934.06	227.38
934.36	227.45
934.66	227.44
934.96	227.40
935.26	227.40
935.56	227.44
935.86	227.40
936.16	227.38
936.46	227.37
936.76	227.36
937.06	227.33
937.36	227.34
937.66	227.35
937.96	227.35
938.26	227.31
938.56	227.31
938.86	227.31
939.16	227.35
939.46	227.35
939.76	227.38
940.06	227.37
940.35	227.33
940.65	227.24
940.95	227.25
941.25	227.23
941.55	227.22
941.85	227.21
942.15	227.25
942.45	227.30
942.75	227.30
943.04	227.31
943.34	227.35
943.64	227.34
943.94	227.32
944.24	227.31
944.54	227.34
944.84	227.33
945.13	227.31
945.43	227.27
945.73	227.28
946.03	227.26
946.33	227.24
946.62	227.23
946.92	227.23
947.22	227.24
947.52	227.26
947.82	227.28
948.11	227.25
948.41	227.21
948.71	227.16
949.01	227.17
949.31	227.16
949.60	227.15
949.90	227.17
950.20	227.16
950.50	227.15
950.79	227.12
951.09	227.16
951.39	227.16
951.69	227.14
951.98	227.17
952.28	227.17
952.58	227.17
952.87	227.18
953.17	227.22
953.47	227.19
953.76	227.18
954.06	227.14
954.36	227.12
954.66	227.12
954.95	227.18
955.25	227.19
955.55	227.20
955.84	227.18
956.14	227.19
956.44	227.21
956.73	227.19
957.03	227.20
957.32	227.20
957.62	227.18
957.92	227.21
958.21	227.19
958.51	227.40
958.81	227.43
959.10	227.45
959.40	227.48
959.69	227.50
959.99	227.52
960.29	227.53
960.58	227.52
960.88	227.59
961.17	227.57
961.47	227.56
961.76	227.55
962.06	227.57
962.36	227.55
962.65	227.55
962.95	227.56
963.24	227.55
963.54	227.55
963.83	227.56
964.13	227.55
964.42	227.54
964.72	227.38
965.01	227.37
965.31	227.35
965.60	227.30
965.90	227.41
966.19	227.37
966.49	227.38
966.78	227.39
967.08	227.35
967.37	227.35
967.67	227.32
967.96	227.35
968.26	227.35
968.55	227.36
968.85	227.36
969.14	227.35
969.43	227.34
969.73	227.33
970.02	227.32
970.32	227.31
970.61	227.28
970.91	227.23
971.20	227.20
971.49	227.18
971.79	227.21
972.08	227.07
972.38	227.09
972.67	227.07
972.96	227.09
973.26	227.06
973.55	227.11
973.85	227.11
974.14	227.08
974.43	227.10
974.73	227.06
975.02	227.05
975.31	227.05
975.61	227.05
975.90	227.05
976.19	227.03
976.49	227.04
976.78	227.06
977.07	227.07
977.37	227.09
977.66	227.10
977.95	227.07
978.24	227.10
978.54	227.14
978.83	227.13
979.12	227.13
979.42	227.14
979.71	227.09
980.00	227.10
980.29	227.10
980.59	227.06
980.88	227.12
981.17	227.11
981.46	227.11
981.76	227.11
982.05	227.16
982.34	227.17
982.63	227.17
982.93	227.17
983.22	227.22
983.51	227.23
983.80	227.25
984.09	227.28
984.39	227.25
984.68	227.23
984.97	227.25
985.26	227.22
985.55	227.23
985.85	227.20
986.14	227.22
986.43	227.25
986.72	227.24
987.01	227.18
987.30	227.19
987.59	227.17
987.89	227.18
988.18	227.13
988.47	227.12
988.76	227.10
989.05	227.10
989.34	227.07
989.63	227.12
989.92	227.09
990.22	227.07
990.51	227.07
990.80	227.06
991.09	227.06
991.38	227.09
991.67	227.07
991.96	227.07
992.25	227.07
992.54	227.03
992.83	227.04
993.12	227.03
993.41	227.07
993.70	227.15
993.99	227.19
994.28	227.22
994.58	227.24
994.87	227.22
995.16	227.22
995.45	227.20
995.74	227.12
996.03	227.16
996.32	227.19
996.61	227.23
996.90	227.23
997.19	227.23
997.48	227.23
997.77	227.21
998.06	227.23
998.34	227.21
998.63	227.22
998.92	227.24
999.21	227.28
999.50	227.25
999.79	227.19
1000.08	227.17
1000.37	227.16
1000.66	227.15
1000.95	227.20
1001.24	227.20
1001.53	227.22
1001.82	227.23
1002.11	227.18
1002.40	227.18
1002.68	227.21
1002.97	227.33
1003.26	227.30
1003.55	227.27
1003.84	227.29
1004.13	227.35
1004.42	227.34
1004.71	227.34
1004.99	227.32
1005.28	227.36
1005.57	227.36
1005.86	227.34
1006.15	227.33
1006.44	227.30
1006.72	227.32
1007.01	227.28
1007.30	227.28
1007.59	227.27
1007.88	227.27
1008.17	227.28
1008.45	227.25
1008.74	227.18
1009.03	227.10
1009.32	227.11
1009.60	227.12
1009.89	227.11
1010.18	227.03
1010.47	227.02
1010.76	227.01
1011.04	227.01
1011.33	227.00
1011.62	227.01
1011.91	227.03
1012.19	227.04
1012.48	227.04
1012.77	227.03
1013.05	227.10
1013.34	227.10
1013.63	227.09
1013.92	227.10
1014.20	227.09
1014.49	227.12
1014.78	227.13
1015.06	227.07
1015.35	227.08
1015.64	227.08
1015.92	227.11
1016.21	227.13
1016.50	227.13
1016.78	227.15
1017.07	227.17
1017.36	227.12
1017.64	227.10
1017.93	227.11
1018.22	227.10
1018.50	227.10
1018.79	227.10
1019.08	227.03
1019.36	227.04
1019.65	227.03
1019.93	227.06
1020.22	227.09
1020.51	227.17
1020.79	227.15
1021.08	227.00
1021.36	226.71
1021.65	227.23
1021.94	226.90
1022.22	227.09
1022.51	226.85
1022.79	227.87
1023.08	227.35
1023.36	229.18
1023.65	226.66
>>>>>End Processed Spectral Data<<<<<
