SpectraSuite Data File
++++++++++++++++++++++++++++++++++++
Date: Wed Oct 07 07:11:39 EDT 2015
User: lab3
Dark Spectrum Present: No
Reference Spectrum Present: No
Number of Sampled Component Spectra: 1
Spectrometers: USB2E7196
Integration Time (usec): 66000 (USB2E7196)
Spectra Averaged: 10000 (USB2E7196)
Boxcar Smoothing: 10 (USB2E7196)
Correct for Electrical Dark: No (USB2E7196)
Strobe/Lamp Enabled: No (USB2E7196)
Correct for Detector Non-linearity: No (USB2E7196)
Correct for Stray Light: No (USB2E7196)
Number of Pixels in Processed Spectrum: 2048
>>>>>Begin Processed Spectral Data<<<<<
339.09	0.00
339.48	212.79
339.86	214.24
340.24	215.61
340.63	217.01
341.01	221.22
341.39	219.82
341.78	221.30
342.16	222.54
342.54	222.82
342.93	211.42
343.31	222.10
343.69	222.63
344.07	223.10
344.46	223.54
344.84	223.96
345.22	224.15
345.60	224.43
345.99	224.63
346.37	224.78
346.75	224.90
347.13	224.99
347.52	225.08
347.90	225.21
348.28	225.26
348.66	225.35
349.05	225.34
349.43	225.42
349.81	225.50
350.19	225.57
350.57	225.65
350.96	225.75
351.34	225.86
351.72	225.98
352.10	226.10
352.48	226.18
352.87	226.22
353.25	226.29
353.63	226.34
354.01	226.40
354.39	226.48
354.77	226.56
355.15	226.68
355.54	226.72
355.92	226.72
356.30	226.80
356.68	226.99
357.06	227.07
357.44	227.10
357.82	227.16
358.20	227.38
358.58	227.44
358.97	227.50
359.35	227.59
359.73	227.69
360.11	227.74
360.49	227.80
360.87	227.85
361.25	227.93
361.63	228.03
362.01	228.09
362.39	228.12
362.77	228.17
363.15	228.18
363.53	228.22
363.91	228.26
364.29	228.29
364.67	228.14
365.05	228.16
365.43	228.20
365.81	228.24
366.19	228.19
366.57	228.28
366.95	228.28
367.33	228.24
367.71	228.23
368.09	228.26
368.47	228.26
368.85	228.25
369.23	228.28
369.61	228.20
369.99	228.24
370.37	228.25
370.75	228.37
371.13	228.33
371.51	228.29
371.89	228.28
372.27	228.26
372.65	228.25
373.03	228.21
373.41	228.16
373.78	228.11
374.16	227.97
374.54	227.87
374.92	227.82
375.30	227.78
375.68	227.71
376.06	227.67
376.44	227.61
376.82	227.58
377.19	227.53
377.57	227.48
377.95	227.38
378.33	227.31
378.71	227.10
379.09	227.07
379.47	227.05
379.84	226.98
380.22	226.91
380.60	226.83
380.98	226.79
381.36	226.74
381.73	226.67
382.11	226.67
382.49	226.63
382.87	226.57
383.25	226.53
383.62	226.70
384.00	226.63
384.38	226.59
384.76	226.59
385.13	226.61
385.51	226.57
385.89	226.52
386.27	226.50
386.64	226.49
387.02	226.44
387.40	226.39
387.78	226.38
388.15	226.37
388.53	226.34
388.91	226.32
389.29	226.28
389.66	226.29
390.04	226.25
390.42	226.26
390.79	226.26
391.17	226.25
391.55	226.03
391.92	226.02
392.30	226.04
392.68	226.00
393.05	225.98
393.43	225.99
393.81	226.02
394.18	226.00
394.56	226.02
394.94	226.08
395.31	226.08
395.69	226.16
396.06	226.20
396.44	226.25
396.82	226.27
397.19	226.41
397.57	226.44
397.95	226.52
398.32	226.51
398.70	226.59
399.07	226.69
399.45	226.76
399.82	226.83
400.20	226.89
400.58	226.99
400.95	227.01
401.33	227.14
401.70	227.38
402.08	227.53
402.45	227.67
402.83	227.84
403.20	228.02
403.58	228.16
403.95	228.38
404.33	228.61
404.71	228.83
405.08	229.15
405.46	229.41
405.83	229.70
406.21	230.01
406.58	230.35
406.96	230.69
407.33	231.08
407.70	231.53
408.08	232.12
408.45	232.65
408.83	233.22
409.20	233.74
409.58	234.22
409.95	234.86
410.33	235.57
410.70	236.25
411.08	237.04
411.45	237.87
411.82	238.73
412.20	239.70
412.57	240.85
412.95	241.78
413.32	242.97
413.69	244.20
414.07	245.51
414.44	246.93
414.82	248.37
415.19	250.07
415.56	251.80
415.94	253.61
416.31	255.63
416.68	257.65
417.06	259.99
417.43	262.19
417.81	264.71
418.18	267.29
418.55	270.10
418.93	273.02
419.30	276.08
419.67	279.31
420.04	282.64
420.42	286.12
420.79	290.13
421.16	294.19
421.54	298.28
421.91	302.57
422.28	307.02
422.66	311.83
423.03	316.39
423.40	321.17
423.77	326.28
424.15	331.52
424.52	336.96
424.89	342.85
425.26	348.68
425.64	354.10
426.01	360.18
426.38	366.39
426.75	372.79
427.13	379.33
427.50	386.17
427.87	393.29
428.24	400.46
428.61	407.32
428.99	414.72
429.36	422.88
429.73	430.66
430.10	438.42
430.47	446.37
430.85	454.59
431.22	463.32
431.59	472.30
431.96	481.07
432.33	490.82
432.70	500.10
433.08	511.10
433.45	521.45
433.82	531.71
434.19	543.21
434.56	554.54
434.93	565.51
435.30	576.41
435.68	588.76
436.05	600.86
436.42	612.98
436.79	624.07
437.16	636.13
437.53	648.98
437.90	661.85
438.27	674.49
438.64	688.18
439.01	700.64
439.38	712.06
439.75	723.11
440.13	735.71
440.50	747.68
440.87	757.28
441.24	767.84
441.61	779.40
441.98	787.99
442.35	798.16
442.72	808.52
443.09	818.40
443.46	824.87
443.83	829.79
444.20	833.92
444.57	839.79
444.94	843.34
445.31	847.01
445.68	850.21
446.05	852.67
446.42	852.49
446.79	852.04
447.16	851.69
447.53	851.40
447.90	847.80
448.27	844.43
448.64	839.00
449.01	835.31
449.37	827.44
449.74	820.29
450.11	811.03
450.48	800.85
450.85	790.61
451.22	781.83
451.59	773.17
451.96	765.33
452.33	753.98
452.70	743.84
453.07	731.56
453.43	719.28
453.80	707.29
454.17	695.79
454.54	685.20
454.91	673.24
455.28	661.93
455.65	651.25
456.02	639.90
456.38	630.78
456.75	619.11
457.12	609.71
457.49	600.23
457.86	591.24
458.23	583.32
458.59	574.61
458.96	565.67
459.33	557.82
459.70	549.83
460.07	543.72
460.43	536.55
460.80	529.86
461.17	524.03
461.54	517.75
461.91	511.83
462.27	505.82
462.64	500.92
463.01	495.34
463.38	489.70
463.74	484.63
464.11	480.11
464.48	476.02
464.85	471.61
465.21	468.24
465.58	464.50
465.95	460.26
466.32	456.90
466.68	453.61
467.05	450.29
467.42	447.08
467.78	443.63
468.15	440.44
468.52	438.08
468.88	434.97
469.25	432.13
469.62	429.88
469.98	427.46
470.35	425.29
470.72	423.30
471.08	421.32
471.45	419.65
471.82	417.78
472.18	415.83
472.55	414.56
472.92	412.97
473.28	411.74
473.65	410.41
474.02	409.12
474.38	408.02
474.75	407.37
475.11	406.47
475.48	406.04
475.85	405.56
476.21	405.27
476.58	405.06
476.94	405.19
477.31	405.20
477.67	405.22
478.04	405.49
478.41	405.89
478.77	406.47
479.14	406.80
479.50	407.56
479.87	408.56
480.23	409.53
480.60	410.44
480.96	411.35
481.33	412.78
481.69	414.17
482.06	415.56
482.42	416.80
482.79	418.38
483.15	420.23
483.52	422.34
483.88	424.34
484.25	426.48
484.61	428.71
484.98	431.13
485.34	433.85
485.71	436.68
486.07	439.74
486.44	442.74
486.80	446.14
487.17	449.60
487.53	453.36
487.90	457.30
488.26	461.60
488.62	466.15
488.99	470.69
489.35	475.46
489.72	480.60
490.08	486.00
490.44	491.51
490.81	497.24
491.17	503.15
491.54	509.49
491.90	515.97
492.26	522.92
492.63	530.19
492.99	537.81
493.36	545.60
493.72	553.77
494.08	562.17
494.45	570.98
494.81	580.20
495.17	589.65
495.54	599.64
495.90	610.08
496.26	620.70
496.63	631.65
496.99	642.98
497.35	654.85
497.72	667.03
498.08	679.54
498.44	692.42
498.80	706.01
499.17	719.88
499.53	734.22
499.89	748.99
500.26	764.02
500.62	779.41
500.98	795.72
501.34	812.05
501.71	829.14
502.07	846.59
502.43	864.52
502.79	882.73
503.16	901.40
503.52	920.30
503.88	939.63
504.24	959.44
504.60	979.52
504.97	1000.23
505.33	1021.48
505.69	1043.84
506.05	1066.43
506.41	1089.01
506.78	1111.75
507.14	1135.02
507.50	1158.82
507.86	1182.99
508.22	1207.40
508.59	1231.68
508.95	1257.01
509.31	1282.92
509.67	1309.49
510.03	1336.08
510.39	1362.50
510.75	1389.01
511.12	1415.82
511.48	1443.05
511.84	1470.17
512.20	1497.65
512.56	1526.26
512.92	1554.71
513.28	1582.44
513.64	1610.64
514.00	1639.23
514.37	1668.10
514.73	1697.05
515.09	1725.32
515.45	1753.79
515.81	1782.64
516.17	1811.21
516.53	1839.11
516.89	1866.66
517.25	1894.49
517.61	1922.11
517.97	1950.41
518.33	1978.22
518.69	2005.97
519.05	2033.99
519.41	2062.20
519.77	2090.63
520.13	2117.42
520.49	2144.11
520.85	2171.28
521.21	2197.77
521.57	2224.60
521.93	2250.26
522.29	2276.66
522.65	2302.87
523.01	2328.83
523.37	2353.94
523.73	2379.86
524.09	2405.43
524.45	2430.88
524.81	2455.68
525.17	2480.36
525.53	2504.00
525.89	2528.15
526.25	2552.03
526.61	2574.08
526.97	2596.19
527.33	2617.92
527.68	2639.68
528.04	2661.04
528.40	2681.33
528.76	2701.56
529.12	2721.22
529.48	2741.73
529.84	2759.44
530.20	2777.36
530.56	2794.67
530.91	2812.01
531.27	2828.59
531.63	2844.34
531.99	2859.55
532.35	2874.60
532.71	2889.27
533.07	2904.47
533.42	2917.62
533.78	2930.82
534.14	2945.24
534.50	2958.53
534.86	2972.40
535.21	2983.78
535.57	2995.09
535.93	3005.91
536.29	3015.09
536.65	3024.07
537.00	3031.76
537.36	3040.56
537.72	3048.58
538.08	3056.16
538.44	3062.35
538.79	3068.46
539.15	3073.31
539.51	3077.40
539.87	3080.13
540.22	3081.08
540.58	3082.32
540.94	3084.14
541.29	3085.04
541.65	3084.43
542.01	3083.43
542.37	3080.64
542.72	3079.71
543.08	3076.90
543.44	3074.24
543.79	3071.54
544.15	3067.99
544.51	3064.19
544.87	3059.58
545.22	3053.90
545.58	3047.67
545.94	3041.92
546.29	3034.68
546.65	3027.49
547.01	3020.47
547.36	3014.12
547.72	3007.94
548.07	2999.94
548.43	2990.77
548.79	2981.15
549.14	2971.84
549.50	2962.68
549.86	2952.68
550.21	2940.79
550.57	2930.31
550.92	2918.19
551.28	2906.08
551.64	2894.34
551.99	2882.47
552.35	2870.09
552.70	2857.66
553.06	2845.79
553.41	2833.44
553.77	2820.67
554.13	2808.00
554.48	2794.23
554.84	2779.09
555.19	2764.38
555.55	2749.75
555.90	2735.66
556.26	2721.85
556.61	2706.94
556.97	2690.85
557.32	2675.15
557.68	2659.91
558.03	2644.22
558.39	2629.39
558.74	2615.38
559.10	2599.50
559.45	2583.48
559.81	2568.12
560.16	2552.30
560.52	2536.17
560.87	2520.42
561.23	2504.20
561.58	2488.58
561.94	2472.57
562.29	2456.16
562.64	2439.96
563.00	2423.73
563.35	2407.77
563.71	2391.33
564.06	2375.09
564.42	2359.38
564.77	2343.82
565.12	2327.89
565.48	2311.56
565.83	2295.31
566.19	2278.96
566.54	2262.77
566.89	2246.23
567.25	2229.78
567.60	2214.27
567.96	2198.21
568.31	2180.50
568.66	2163.51
569.02	2147.23
569.37	2131.48
569.72	2116.31
570.08	2100.74
570.43	2084.47
570.78	2067.94
571.14	2051.44
571.49	2034.87
571.84	2018.52
572.20	2000.90
572.55	1983.99
572.90	1967.28
573.26	1950.83
573.61	1933.68
573.96	1917.07
574.31	1900.33
574.67	1883.16
575.02	1865.59
575.37	1848.01
575.72	1831.38
576.08	1814.64
576.43	1796.87
576.78	1779.47
577.13	1762.29
577.49	1745.28
577.84	1728.87
578.19	1712.03
578.54	1695.09
578.90	1678.05
579.25	1660.81
579.60	1644.94
579.95	1628.76
580.30	1612.57
580.66	1596.02
581.01	1579.61
581.36	1563.21
581.71	1547.73
582.06	1532.35
582.42	1516.80
582.77	1501.62
583.12	1486.68
583.47	1471.83
583.82	1457.17
584.17	1441.87
584.53	1426.72
584.88	1411.92
585.23	1396.94
585.58	1382.38
585.93	1367.65
586.28	1353.98
586.63	1340.23
586.98	1325.93
587.34	1312.10
587.69	1298.08
588.04	1284.33
588.39	1270.86
588.74	1257.08
589.09	1243.39
589.44	1229.35
589.79	1216.01
590.14	1202.70
590.49	1189.41
590.84	1176.33
591.19	1163.67
591.54	1151.20
591.89	1138.35
592.25	1125.79
592.60	1113.12
592.95	1100.58
593.30	1088.57
593.65	1076.19
594.00	1064.15
594.35	1053.02
594.70	1041.18
595.05	1029.96
595.40	1018.65
595.75	1007.17
596.10	996.34
596.45	985.41
596.80	975.03
597.15	964.55
597.50	954.02
597.85	943.93
598.19	933.80
598.54	923.63
598.89	913.97
599.24	904.73
599.59	895.21
599.94	886.42
600.29	877.72
600.64	868.77
600.99	859.72
601.34	851.04
601.69	841.82
602.04	833.56
602.39	825.19
602.74	817.06
603.08	809.03
603.43	801.03
603.78	793.05
604.13	785.06
604.48	777.08
604.83	769.45
605.18	761.78
605.53	754.33
605.87	746.88
606.22	739.55
606.57	732.13
606.92	724.72
607.27	717.31
607.62	710.03
607.96	703.02
608.31	696.57
608.66	689.92
609.01	683.61
609.36	677.25
609.70	670.89
610.05	664.48
610.40	658.29
610.75	652.04
611.10	646.05
611.44	640.05
611.79	634.23
612.14	628.28
612.49	622.42
612.83	616.87
613.18	611.40
613.53	605.93
613.88	600.57
614.22	595.61
614.57	590.57
614.92	585.68
615.27	580.89
615.61	575.96
615.96	571.13
616.31	566.26
616.65	561.54
617.00	556.94
617.35	552.45
617.70	547.97
618.04	543.61
618.39	539.34
618.74	535.35
619.08	531.30
619.43	527.40
619.78	523.48
620.12	519.47
620.47	515.68
620.82	512.00
621.16	508.36
621.51	504.76
621.85	501.16
622.20	497.60
622.55	494.08
622.89	490.59
623.24	487.28
623.59	484.03
623.93	480.88
624.28	477.83
624.62	474.99
624.97	472.19
625.32	469.30
625.66	466.38
626.01	463.43
626.35	460.64
626.70	457.82
627.04	455.21
627.39	452.56
627.73	449.98
628.08	447.43
628.43	444.92
628.77	442.33
629.12	439.84
629.46	437.48
629.81	435.27
630.15	432.96
630.50	430.69
630.84	428.47
631.19	426.29
631.53	424.22
631.88	421.95
632.22	419.76
632.57	417.90
632.91	415.99
633.26	414.14
633.60	412.31
633.95	410.57
634.29	408.69
634.64	406.87
634.98	404.96
635.32	403.23
635.67	401.67
636.01	400.10
636.36	398.58
636.70	397.13
637.05	395.52
637.39	394.08
637.73	392.63
638.08	391.24
638.42	389.90
638.77	388.42
639.11	386.92
639.45	385.48
639.80	383.99
640.14	382.57
640.49	381.15
640.83	379.73
641.17	378.39
641.52	377.06
641.86	375.77
642.20	374.64
642.55	373.32
642.89	372.02
643.23	370.79
643.58	369.69
643.92	368.44
644.26	367.29
644.61	366.18
644.95	365.03
645.29	363.83
645.64	362.60
645.98	361.49
646.32	360.52
646.66	359.47
647.01	358.43
647.35	357.50
647.69	356.53
648.04	355.64
648.38	354.67
648.72	353.76
649.06	352.84
649.41	351.90
649.75	351.02
650.09	350.16
650.43	349.29
650.78	348.36
651.12	347.51
651.46	346.67
651.80	345.84
652.14	345.06
652.49	344.35
652.83	343.58
653.17	342.78
653.51	341.98
653.85	341.32
654.20	340.62
654.54	339.80
654.88	339.04
655.22	338.34
655.56	337.60
655.90	336.91
656.25	336.24
656.59	335.57
656.93	334.94
657.27	334.36
657.61	333.70
657.95	333.12
658.29	332.50
658.64	331.89
658.98	331.24
659.32	330.59
659.66	329.98
660.00	329.42
660.34	328.86
660.68	328.25
661.02	327.57
661.36	326.94
661.70	326.36
662.05	325.80
662.39	325.24
662.73	324.79
663.07	324.36
663.41	323.88
663.75	323.37
664.09	322.86
664.43	322.24
664.77	321.71
665.11	321.13
665.45	320.61
665.79	320.10
666.13	319.59
666.47	319.06
666.81	318.51
667.15	317.90
667.49	317.43
667.83	317.02
668.17	316.57
668.51	316.17
668.85	315.78
669.19	315.45
669.53	314.94
669.87	314.40
670.21	313.85
670.55	313.34
670.89	312.94
671.23	312.48
671.57	312.08
671.91	311.74
672.25	311.42
672.58	311.09
672.92	310.67
673.26	310.33
673.60	309.99
673.94	309.62
674.28	309.30
674.62	308.94
674.96	308.51
675.30	308.16
675.64	307.74
675.97	307.29
676.31	306.82
676.65	306.42
676.99	306.10
677.33	305.67
677.67	305.28
678.01	304.81
678.34	304.42
678.68	304.04
679.02	303.60
679.36	303.15
679.70	302.70
680.04	302.31
680.37	301.89
680.71	301.50
681.05	301.16
681.39	300.77
681.73	300.31
682.06	299.90
682.40	299.50
682.74	299.15
683.08	298.85
683.42	298.47
683.75	298.13
684.09	297.67
684.43	297.30
684.77	296.89
685.10	296.52
685.44	296.12
685.78	295.71
686.12	295.32
686.45	294.90
686.79	294.47
687.13	294.07
687.46	293.63
687.80	293.21
688.14	292.75
688.48	292.33
688.81	291.91
689.15	291.55
689.49	291.10
689.82	290.66
690.16	290.12
690.50	289.68
690.83	289.22
691.17	288.77
691.51	288.34
691.84	287.94
692.18	287.50
692.52	287.04
692.85	286.61
693.19	286.22
693.52	285.80
693.86	285.36
694.20	284.93
694.53	284.50
694.87	284.03
695.21	283.58
695.54	283.13
695.88	282.66
696.21	282.16
696.55	281.72
696.88	281.27
697.22	280.85
697.56	280.44
697.89	279.97
698.23	279.55
698.56	279.10
698.90	278.69
699.23	278.23
699.57	277.82
699.90	277.39
700.24	276.91
700.58	276.51
700.91	276.14
701.25	275.88
701.58	275.56
701.92	275.21
702.25	274.83
702.59	274.41
702.92	274.02
703.26	273.61
703.59	273.19
703.93	272.92
704.26	272.51
704.60	272.09
704.93	271.69
705.26	271.27
705.60	270.91
705.93	270.45
706.27	270.12
706.60	269.78
706.94	269.45
707.27	269.02
707.61	268.62
707.94	268.20
708.27	267.63
708.61	267.16
708.94	266.72
709.28	266.33
709.61	265.94
709.94	265.59
710.28	265.24
710.61	264.91
710.95	264.39
711.28	264.15
711.61	263.78
711.95	263.47
712.28	263.09
712.61	262.71
712.95	262.46
713.28	262.17
713.61	261.78
713.95	261.38
714.28	261.06
714.61	260.69
714.95	260.35
715.28	260.01
715.61	259.69
715.95	259.39
716.28	259.06
716.61	258.77
716.95	258.44
717.28	258.12
717.61	257.78
717.94	257.49
718.28	257.06
718.61	256.76
718.94	256.42
719.27	256.13
719.61	255.86
719.94	255.53
720.27	255.15
720.60	254.87
720.94	254.58
721.27	254.30
721.60	254.05
721.93	253.77
722.27	253.55
722.60	253.27
722.93	252.96
723.26	252.72
723.59	252.41
723.93	252.16
724.26	251.92
724.59	251.66
724.92	251.41
725.25	251.21
725.59	250.97
725.92	250.75
726.25	250.50
726.58	250.25
726.91	250.00
727.24	249.78
727.57	249.53
727.91	249.26
728.24	249.04
728.57	248.80
728.90	248.59
729.23	248.30
729.56	248.16
729.89	247.95
730.22	247.72
730.55	247.50
730.89	247.28
731.22	247.05
731.55	246.84
731.88	246.64
732.21	246.39
732.54	246.17
732.87	245.96
733.20	245.78
733.53	245.58
733.86	245.41
734.19	245.19
734.52	245.03
734.85	244.99
735.18	244.77
735.51	244.64
735.84	244.45
736.17	244.33
736.50	244.06
736.83	244.09
737.16	243.92
737.49	243.75
737.82	243.55
738.15	243.40
738.48	243.21
738.81	243.03
739.14	242.84
739.47	242.65
739.80	242.47
740.13	242.31
740.46	242.10
740.79	241.90
741.12	241.72
741.45	241.51
741.78	241.23
742.11	241.11
742.44	240.88
742.77	240.74
743.10	240.54
743.43	240.37
743.75	240.01
744.08	240.13
744.41	239.95
744.74	239.79
745.07	239.59
745.40	239.48
745.73	239.42
746.06	239.28
746.39	239.17
746.71	239.02
747.04	238.85
747.37	238.71
747.70	238.60
748.03	238.47
748.36	238.37
748.68	238.23
749.01	238.04
749.34	237.93
749.67	237.80
750.00	237.69
750.33	237.70
750.65	237.59
750.98	237.19
751.31	237.09
751.64	236.99
751.97	236.97
752.29	236.83
752.62	236.61
752.95	236.48
753.28	236.33
753.60	236.21
753.93	236.13
754.26	236.04
754.59	235.86
754.91	235.72
755.24	235.58
755.57	235.48
755.90	235.36
756.22	235.22
756.55	235.07
756.88	234.92
757.20	234.68
757.53	234.52
757.86	234.42
758.19	234.32
758.51	234.20
758.84	234.00
759.17	233.88
759.49	233.80
759.82	233.78
760.15	233.70
760.47	233.60
760.80	233.45
761.13	233.38
761.45	233.29
761.78	233.20
762.11	233.12
762.43	233.01
762.76	232.92
763.08	232.85
763.41	232.78
763.74	232.71
764.06	232.63
764.39	232.55
764.71	232.46
765.04	232.36
765.37	232.27
765.69	232.19
766.02	232.11
766.34	232.01
766.67	231.87
767.00	231.82
767.32	231.85
767.65	231.89
767.97	231.80
768.30	231.74
768.62	231.66
768.95	231.57
769.27	231.50
769.60	231.46
769.92	231.36
770.25	231.26
770.57	231.16
770.90	231.09
771.22	231.00
771.55	230.95
771.87	230.90
772.20	230.84
772.52	230.94
772.85	231.10
773.17	231.05
773.50	230.98
773.82	230.88
774.15	230.73
774.47	230.56
774.80	230.49
775.12	230.44
775.45	230.38
775.77	230.34
776.09	230.31
776.42	230.25
776.74	230.26
777.07	230.21
777.39	230.18
777.72	230.12
778.04	230.10
778.36	230.04
778.69	229.99
779.01	229.96
779.33	229.75
779.66	229.50
779.98	229.45
780.31	229.42
780.63	229.45
780.95	229.45
781.28	229.41
781.60	229.35
781.92	229.31
782.25	229.28
782.57	229.24
782.89	229.19
783.22	229.14
783.54	229.06
783.86	229.04
784.19	229.00
784.51	229.02
784.83	228.96
785.16	228.92
785.48	228.89
785.80	228.85
786.12	228.83
786.45	228.80
786.77	228.79
787.09	228.74
787.42	228.64
787.74	228.60
788.06	228.58
788.38	228.55
788.71	228.51
789.03	228.48
789.35	228.48
789.67	228.42
789.99	228.41
790.32	228.36
790.64	228.35
790.96	228.50
791.28	228.40
791.61	228.37
791.93	228.36
792.25	228.32
792.57	228.42
792.89	228.37
793.21	228.34
793.54	228.30
793.86	228.25
794.18	228.24
794.50	228.18
794.82	228.15
795.14	228.15
795.47	228.16
795.79	228.14
796.11	228.07
796.43	228.04
796.75	228.01
797.07	228.00
797.39	227.96
797.71	227.78
798.04	227.78
798.36	227.76
798.68	227.73
799.00	227.73
799.32	227.61
799.64	227.63
799.96	227.60
800.28	227.61
800.60	227.59
800.92	227.58
801.24	227.56
801.56	227.55
801.89	227.51
802.21	227.49
802.53	227.44
802.85	227.47
803.17	227.54
803.49	227.48
803.81	227.45
804.13	227.42
804.45	227.38
804.77	227.37
805.09	227.35
805.41	227.31
805.73	227.26
806.05	227.20
806.37	227.16
806.69	227.12
807.01	227.09
807.33	227.08
807.65	227.00
807.97	227.06
808.28	227.02
808.60	227.00
808.92	226.95
809.24	227.05
809.56	227.00
809.88	226.91
810.20	226.91
810.52	226.94
810.84	226.89
811.16	226.86
811.48	226.83
811.80	226.88
812.12	226.87
812.43	226.89
812.75	226.89
813.07	226.86
813.39	226.86
813.71	226.82
814.03	226.79
814.35	226.79
814.67	226.70
814.98	226.67
815.30	226.66
815.62	226.62
815.94	226.48
816.26	226.50
816.58	226.45
816.89	226.45
817.21	226.40
817.53	226.40
817.85	226.40
818.17	226.38
818.48	226.29
818.80	226.32
819.12	226.27
819.44	226.23
819.76	226.20
820.07	226.18
820.39	226.17
820.71	226.17
821.03	226.16
821.34	226.14
821.66	226.15
821.98	226.16
822.30	226.15
822.61	226.26
822.93	226.22
823.25	226.21
823.57	226.18
823.88	226.19
824.20	226.18
824.52	226.19
824.83	226.18
825.15	226.16
825.47	226.13
825.79	226.14
826.10	226.13
826.42	226.11
826.74	226.12
827.05	226.11
827.37	226.10
827.69	226.09
828.00	226.09
828.32	226.07
828.64	226.04
828.95	226.13
829.27	226.07
829.58	226.06
829.90	226.08
830.22	226.08
830.53	226.04
830.85	226.02
831.17	225.96
831.48	225.95
831.80	225.96
832.11	225.94
832.43	225.91
832.75	225.90
833.06	226.00
833.38	225.95
833.69	225.94
834.01	225.94
834.32	225.93
834.64	225.90
834.96	225.90
835.27	225.89
835.59	225.82
835.90	225.78
836.22	225.78
836.53	225.74
836.85	225.72
837.16	225.90
837.48	225.90
837.79	225.95
838.11	225.95
838.42	225.95
838.74	225.96
839.05	225.95
839.37	225.94
839.68	225.82
840.00	225.81
840.31	225.83
840.63	225.80
840.94	225.78
841.26	225.76
841.57	225.75
841.88	225.76
842.20	225.73
842.51	225.70
842.83	225.69
843.14	225.85
843.46	225.85
843.77	225.73
844.08	225.72
844.40	225.66
844.71	225.64
845.03	225.62
845.34	225.60
845.65	225.60
845.97	225.60
846.28	225.60
846.60	225.61
846.91	225.58
847.22	225.58
847.54	225.61
847.85	225.62
848.16	225.60
848.48	225.56
848.79	225.63
849.10	225.65
849.42	225.65
849.73	225.48
850.04	225.48
850.36	225.41
850.67	225.44
850.98	225.44
851.30	225.45
851.61	225.44
851.92	225.44
852.23	225.49
852.55	225.49
852.86	225.49
853.17	225.50
853.49	225.54
853.80	225.57
854.11	225.58
854.42	225.59
854.74	225.57
855.05	225.58
855.36	225.48
855.67	225.48
855.99	225.48
856.30	225.69
856.61	225.69
856.92	225.69
857.23	225.69
857.55	225.66
857.86	225.65
858.17	225.68
858.48	225.65
858.79	225.61
859.11	225.62
859.42	225.61
859.73	225.58
860.04	225.56
860.35	225.51
860.66	225.45
860.98	225.44
861.29	225.47
861.60	225.45
861.91	225.49
862.22	225.46
862.53	225.43
862.84	225.21
863.16	225.25
863.47	225.21
863.78	225.19
864.09	225.20
864.40	225.21
864.71	225.20
865.02	225.23
865.33	225.21
865.64	225.17
865.95	225.17
866.27	225.28
866.58	225.26
866.89	225.29
867.20	225.28
867.51	225.25
867.82	225.24
868.13	225.30
868.44	225.26
868.75	225.29
869.06	225.31
869.37	225.33
869.68	225.28
869.99	225.31
870.30	225.32
870.61	225.33
870.92	225.31
871.23	225.29
871.54	225.30
871.85	225.35
872.16	225.37
872.47	225.35
872.78	225.25
873.09	225.27
873.40	225.25
873.71	225.26
874.02	225.28
874.33	225.26
874.64	225.21
874.95	225.24
875.26	225.20
875.56	225.20
875.87	225.18
876.18	225.18
876.49	225.35
876.80	225.33
877.11	225.30
877.42	225.31
877.73	225.31
878.04	225.28
878.35	225.27
878.66	225.27
878.96	225.27
879.27	225.26
879.58	225.24
879.89	225.23
880.20	225.28
880.51	225.27
880.82	225.28
881.12	225.29
881.43	225.25
881.74	225.23
882.05	225.21
882.36	225.23
882.67	225.24
882.97	225.04
883.28	225.03
883.59	225.02
883.90	225.04
884.21	225.06
884.51	225.05
884.82	225.03
885.13	225.03
885.44	225.02
885.74	225.03
886.05	225.02
886.36	225.02
886.67	224.95
886.98	225.04
887.28	225.06
887.59	225.05
887.90	225.06
888.20	225.06
888.51	225.10
888.82	225.06
889.13	225.08
889.43	225.24
889.74	225.23
890.05	225.23
890.35	225.21
890.66	225.18
890.97	225.16
891.28	225.14
891.58	225.14
891.89	225.14
892.20	225.12
892.50	225.10
892.81	225.09
893.12	225.08
893.42	224.99
893.73	224.99
894.04	224.99
894.34	225.00
894.65	224.99
894.95	224.97
895.26	224.98
895.57	225.05
895.87	224.87
896.18	224.90
896.48	224.91
896.79	224.91
897.10	224.94
897.40	224.95
897.71	224.97
898.01	224.95
898.32	224.98
898.63	224.97
898.93	224.99
899.24	225.00
899.54	224.99
899.85	224.99
900.15	224.98
900.46	224.98
900.76	224.99
901.07	224.99
901.38	224.98
901.68	225.00
901.99	224.90
902.29	224.92
902.60	224.90
902.90	224.88
903.21	224.88
903.51	224.86
903.82	224.90
904.12	224.90
904.43	224.91
904.73	224.90
905.03	224.91
905.34	225.08
905.64	225.07
905.95	225.07
906.25	225.07
906.56	225.06
906.86	225.06
907.17	225.04
907.47	225.05
907.77	225.04
908.08	225.00
908.38	225.01
908.69	225.02
908.99	225.05
909.30	225.06
909.60	225.06
909.90	225.06
910.21	225.01
910.51	224.97
910.81	224.98
911.12	224.98
911.42	224.98
911.73	224.79
912.03	224.81
912.33	224.85
912.64	224.83
912.94	224.81
913.24	224.79
913.55	224.77
913.85	224.76
914.15	224.80
914.46	224.82
914.76	224.80
915.06	224.79
915.37	224.75
915.67	224.74
915.97	224.74
916.27	224.71
916.58	224.72
916.88	224.72
917.18	224.70
917.49	224.83
917.79	224.82
918.09	224.85
918.39	224.89
918.70	224.88
919.00	224.89
919.30	224.98
919.60	224.97
919.91	224.95
920.21	224.96
920.51	224.92
920.81	224.91
921.12	224.95
921.42	224.94
921.72	224.96
922.02	224.97
922.32	224.99
922.63	225.00
922.93	225.11
923.23	225.12
923.53	225.10
923.83	224.98
924.13	225.00
924.44	224.99
924.74	225.01
925.04	225.05
925.34	225.05
925.64	224.97
925.94	224.97
926.24	225.08
926.55	225.06
926.85	225.09
927.15	225.09
927.45	225.08
927.75	225.08
928.05	225.08
928.35	225.07
928.65	225.09
928.95	225.11
929.26	225.02
929.56	225.05
929.86	225.08
930.16	225.06
930.46	225.05
930.76	225.05
931.06	224.96
931.36	224.91
931.66	224.94
931.96	224.97
932.26	224.98
932.56	224.89
932.86	224.91
933.16	224.90
933.46	224.89
933.76	224.86
934.06	224.90
934.36	224.96
934.66	224.95
934.96	224.92
935.26	224.93
935.56	224.95
935.86	224.90
936.16	224.88
936.46	224.86
936.76	224.85
937.06	224.83
937.36	224.84
937.66	224.85
937.96	224.84
938.26	224.79
938.56	224.78
938.86	224.79
939.16	224.82
939.46	224.84
939.76	224.85
940.06	224.85
940.35	224.82
940.65	224.72
940.95	224.74
941.25	224.70
941.55	224.67
941.85	224.66
942.15	224.70
942.45	224.75
942.75	224.75
943.04	224.77
943.34	224.80
943.64	224.78
943.94	224.76
944.24	224.76
944.54	224.78
944.84	224.78
945.13	224.76
945.43	224.72
945.73	224.71
946.03	224.70
946.33	224.68
946.62	224.66
946.92	224.66
947.22	224.67
947.52	224.69
947.82	224.71
948.11	224.69
948.41	224.64
948.71	224.59
949.01	224.61
949.31	224.59
949.60	224.57
949.90	224.60
950.20	224.60
950.50	224.59
950.79	224.57
951.09	224.60
951.39	224.60
951.69	224.58
951.98	224.61
952.28	224.62
952.58	224.62
952.87	224.62
953.17	224.65
953.47	224.63
953.76	224.63
954.06	224.59
954.36	224.57
954.66	224.57
954.95	224.62
955.25	224.63
955.55	224.65
955.84	224.62
956.14	224.64
956.44	224.65
956.73	224.63
957.03	224.64
957.32	224.64
957.62	224.63
957.92	224.67
958.21	224.65
958.51	224.86
958.81	224.88
959.10	224.90
959.40	224.94
959.69	224.96
959.99	224.98
960.29	224.99
960.58	224.99
960.88	225.06
961.17	225.03
961.47	225.05
961.76	225.03
962.06	225.06
962.36	225.03
962.65	225.04
962.95	225.06
963.24	225.04
963.54	225.04
963.83	225.06
964.13	225.04
964.42	225.02
964.72	224.87
965.01	224.87
965.31	224.85
965.60	224.81
965.90	224.92
966.19	224.88
966.49	224.90
966.78	224.89
967.08	224.87
967.37	224.88
967.67	224.84
967.96	224.87
968.26	224.86
968.55	224.89
968.85	224.88
969.14	224.88
969.43	224.88
969.73	224.86
970.02	224.85
970.32	224.84
970.61	224.81
970.91	224.76
971.20	224.73
971.49	224.72
971.79	224.74
972.08	224.60
972.38	224.62
972.67	224.60
972.96	224.63
973.26	224.60
973.55	224.64
973.85	224.64
974.14	224.62
974.43	224.63
974.73	224.60
975.02	224.58
975.31	224.58
975.61	224.59
975.90	224.57
976.19	224.56
976.49	224.58
976.78	224.59
977.07	224.59
977.37	224.60
977.66	224.62
977.95	224.59
978.24	224.61
978.54	224.64
978.83	224.64
979.12	224.62
979.42	224.63
979.71	224.59
980.00	224.58
980.29	224.59
980.59	224.55
980.88	224.60
981.17	224.60
981.46	224.60
981.76	224.60
982.05	224.66
982.34	224.68
982.63	224.67
982.93	224.67
983.22	224.72
983.51	224.73
983.80	224.75
984.09	224.78
984.39	224.76
984.68	224.74
984.97	224.75
985.26	224.73
985.55	224.75
985.85	224.71
986.14	224.74
986.43	224.76
986.72	224.75
987.01	224.69
987.30	224.70
987.59	224.68
987.89	224.69
988.18	224.63
988.47	224.61
988.76	224.60
989.05	224.58
989.34	224.55
989.63	224.59
989.92	224.56
990.22	224.53
990.51	224.53
990.80	224.51
991.09	224.53
991.38	224.55
991.67	224.53
991.96	224.52
992.25	224.52
992.54	224.48
992.83	224.49
993.12	224.49
993.41	224.52
993.70	224.60
993.99	224.63
994.28	224.66
994.58	224.69
994.87	224.67
995.16	224.67
995.45	224.66
995.74	224.60
996.03	224.63
996.32	224.66
996.61	224.70
996.90	224.70
997.19	224.68
997.48	224.68
997.77	224.66
998.06	224.68
998.34	224.66
998.63	224.67
998.92	224.68
999.21	224.70
999.50	224.70
999.79	224.63
1000.08	224.62
1000.37	224.62
1000.66	224.59
1000.95	224.64
1001.24	224.65
1001.53	224.67
1001.82	224.67
1002.11	224.62
1002.40	224.64
1002.68	224.67
1002.97	224.80
1003.26	224.78
1003.55	224.76
1003.84	224.77
1004.13	224.83
1004.42	224.83
1004.71	224.82
1004.99	224.81
1005.28	224.85
1005.57	224.84
1005.86	224.82
1006.15	224.82
1006.44	224.79
1006.72	224.81
1007.01	224.78
1007.30	224.78
1007.59	224.76
1007.88	224.76
1008.17	224.78
1008.45	224.74
1008.74	224.66
1009.03	224.57
1009.32	224.58
1009.60	224.58
1009.89	224.57
1010.18	224.49
1010.47	224.48
1010.76	224.48
1011.04	224.47
1011.33	224.46
1011.62	224.48
1011.91	224.49
1012.19	224.50
1012.48	224.51
1012.77	224.50
1013.05	224.57
1013.34	224.57
1013.63	224.56
1013.92	224.57
1014.20	224.56
1014.49	224.57
1014.78	224.59
1015.06	224.53
1015.35	224.53
1015.64	224.56
1015.92	224.59
1016.21	224.60
1016.50	224.60
1016.78	224.63
1017.07	224.64
1017.36	224.61
1017.64	224.59
1017.93	224.60
1018.22	224.58
1018.50	224.58
1018.79	224.58
1019.08	224.51
1019.36	224.53
1019.65	224.51
1019.93	224.56
1020.22	224.59
1020.51	224.68
1020.79	224.66
1021.08	224.38
1021.36	224.29
1021.65	224.61
1021.94	224.50
1022.22	224.71
1022.51	224.24
1022.79	225.42
1023.08	224.82
1023.36	226.74
1023.65	224.14
>>>>>End Processed Spectral Data<<<<<
