SpectraSuite Data File
++++++++++++++++++++++++++++++++++++
Date: Tue Oct 06 17:50:51 EDT 2015
User: lab3
Dark Spectrum Present: No
Reference Spectrum Present: No
Number of Sampled Component Spectra: 1
Spectrometers: USB2E7196
Integration Time (usec): 66000 (USB2E7196)
Spectra Averaged: 3000 (USB2E7196)
Boxcar Smoothing: 10 (USB2E7196)
Correct for Electrical Dark: No (USB2E7196)
Strobe/Lamp Enabled: No (USB2E7196)
Correct for Detector Non-linearity: No (USB2E7196)
Correct for Stray Light: No (USB2E7196)
Number of Pixels in Processed Spectrum: 2048
>>>>>Begin Processed Spectral Data<<<<<
339.09	0.00
339.48	215.51
339.86	217.00
340.24	218.27
340.63	219.68
341.01	223.80
341.39	222.38
341.78	223.91
342.16	225.28
342.54	225.36
342.93	213.92
343.31	224.72
343.69	225.25
344.07	225.71
344.46	226.16
344.84	226.57
345.22	226.76
345.60	227.04
345.99	227.24
346.37	227.39
346.75	227.51
347.13	227.60
347.52	227.69
347.90	227.81
348.28	227.86
348.66	227.95
349.05	227.95
349.43	228.02
349.81	228.10
350.19	228.17
350.57	228.25
350.96	228.35
351.34	228.47
351.72	228.57
352.10	228.69
352.48	228.76
352.87	228.81
353.25	228.87
353.63	228.93
354.01	228.99
354.39	229.06
354.77	229.14
355.15	229.26
355.54	229.30
355.92	229.30
356.30	229.38
356.68	229.56
357.06	229.63
357.44	229.67
357.82	229.72
358.20	229.94
358.58	229.99
358.97	230.05
359.35	230.14
359.73	230.24
360.11	230.29
360.49	230.35
360.87	230.40
361.25	230.47
361.63	230.57
362.01	230.63
362.39	230.65
362.77	230.69
363.15	230.71
363.53	230.74
363.91	230.78
364.29	230.80
364.67	230.65
365.05	230.68
365.43	230.72
365.81	230.75
366.19	230.70
366.57	230.78
366.95	230.78
367.33	230.75
367.71	230.73
368.09	230.76
368.47	230.75
368.85	230.75
369.23	230.77
369.61	230.69
369.99	230.74
370.37	230.74
370.75	230.86
371.13	230.82
371.51	230.78
371.89	230.77
372.27	230.75
372.65	230.75
373.03	230.71
373.41	230.66
373.78	230.61
374.16	230.49
374.54	230.39
374.92	230.34
375.30	230.30
375.68	230.23
376.06	230.18
376.44	230.13
376.82	230.09
377.19	230.05
377.57	230.00
377.95	229.90
378.33	229.83
378.71	229.63
379.09	229.59
379.47	229.58
379.84	229.51
380.22	229.45
380.60	229.37
380.98	229.33
381.36	229.28
381.73	229.21
382.11	229.19
382.49	229.16
382.87	229.10
383.25	229.06
383.62	229.23
384.00	229.15
384.38	229.12
384.76	229.12
385.13	229.13
385.51	229.10
385.89	229.04
386.27	229.02
386.64	229.01
387.02	228.96
387.40	228.92
387.78	228.90
388.15	228.88
388.53	228.85
388.91	228.83
389.29	228.80
389.66	228.81
390.04	228.77
390.42	228.79
390.79	228.78
391.17	228.77
391.55	228.56
391.92	228.56
392.30	228.58
392.68	228.52
393.05	228.51
393.43	228.52
393.81	228.54
394.18	228.53
394.56	228.54
394.94	228.59
395.31	228.59
395.69	228.67
396.06	228.71
396.44	228.76
396.82	228.79
397.19	228.91
397.57	228.93
397.95	229.01
398.32	229.00
398.70	229.06
399.07	229.16
399.45	229.22
399.82	229.28
400.20	229.34
400.58	229.43
400.95	229.44
401.33	229.56
401.70	229.78
402.08	229.92
402.45	230.05
402.83	230.22
403.20	230.38
403.58	230.51
403.95	230.71
404.33	230.93
404.71	231.13
405.08	231.44
405.46	231.68
405.83	231.95
406.21	232.23
406.58	232.56
406.96	232.87
407.33	233.23
407.70	233.65
408.08	234.21
408.45	234.70
408.83	235.23
409.20	235.72
409.58	236.16
409.95	236.77
410.33	237.43
410.70	238.05
411.08	238.78
411.45	239.57
411.82	240.37
412.20	241.27
412.57	242.35
412.95	243.20
413.32	244.32
413.69	245.47
414.07	246.69
414.44	248.03
414.82	249.39
415.19	250.98
415.56	252.61
415.94	254.30
416.31	256.20
416.68	258.11
417.06	260.31
417.43	262.39
417.81	264.77
418.18	267.20
418.55	269.85
418.93	272.61
419.30	275.50
419.67	278.57
420.04	281.72
420.42	285.02
420.79	288.82
421.16	292.66
421.54	296.54
421.91	300.62
422.28	304.84
422.66	309.39
423.03	313.73
423.40	318.28
423.77	323.14
424.15	328.13
424.52	333.29
424.89	338.89
425.26	344.44
425.64	349.58
426.01	355.37
426.38	361.27
426.75	367.35
427.13	373.57
427.50	380.08
427.87	386.84
428.24	393.65
428.61	400.17
428.99	407.21
429.36	414.93
429.73	422.31
430.10	429.67
430.47	437.20
430.85	444.98
431.22	453.27
431.59	461.79
431.96	470.09
432.33	479.34
432.70	488.11
433.08	498.52
433.45	508.33
433.82	518.01
434.19	528.88
434.56	539.57
434.93	549.95
435.30	560.23
435.68	571.90
436.05	583.28
436.42	594.71
436.79	605.15
437.16	616.49
437.53	628.61
437.90	640.71
438.27	652.63
438.64	665.46
439.01	677.13
439.38	687.83
439.75	698.16
440.13	709.92
440.50	721.10
440.87	730.03
441.24	739.86
441.61	750.64
441.98	758.58
442.35	768.03
442.72	777.62
443.09	786.76
443.46	792.68
443.83	797.20
444.20	800.91
444.57	806.29
444.94	809.46
445.31	812.75
445.68	815.56
446.05	817.64
446.42	817.27
446.79	816.64
447.16	816.13
447.53	815.71
447.90	812.18
448.27	808.80
448.64	803.50
449.01	799.84
449.37	792.29
449.74	785.44
450.11	776.57
450.48	766.86
450.85	757.13
451.22	748.76
451.59	740.50
451.96	733.03
452.33	722.26
452.70	712.67
453.07	701.04
453.43	689.47
453.80	678.16
454.17	667.37
454.54	657.39
454.91	646.14
455.28	635.49
455.65	625.46
456.02	614.87
456.38	606.34
456.75	595.42
457.12	586.61
457.49	577.74
457.86	569.33
458.23	561.92
458.59	553.78
458.96	545.43
459.33	538.10
459.70	530.64
460.07	524.95
460.43	518.22
460.80	511.95
461.17	506.49
461.54	500.59
461.91	495.05
462.27	489.43
462.64	484.83
463.01	479.59
463.38	474.29
463.74	469.51
464.11	465.26
464.48	461.42
464.85	457.30
465.21	454.12
465.58	450.61
465.95	446.63
466.32	443.45
466.68	440.34
467.05	437.20
467.42	434.14
467.78	430.88
468.15	427.89
468.52	425.69
468.88	422.77
469.25	420.12
469.62	418.01
469.98	415.72
470.35	413.67
470.72	411.81
471.08	409.94
471.45	408.36
471.82	406.61
472.18	404.78
472.55	403.59
472.92	402.11
473.28	400.97
473.65	399.74
474.02	398.55
474.38	397.55
474.75	396.97
475.11	396.17
475.48	395.79
475.85	395.38
476.21	395.13
476.58	394.97
476.94	395.14
477.31	395.19
477.67	395.28
478.04	395.59
478.41	396.01
478.77	396.62
479.14	397.00
479.50	397.77
479.87	398.75
480.23	399.71
480.60	400.63
480.96	401.56
481.33	402.96
481.69	404.35
482.06	405.71
482.42	406.96
482.79	408.54
483.15	410.36
483.52	412.42
483.88	414.37
484.25	416.45
484.61	418.64
484.98	420.99
485.34	423.64
485.71	426.41
486.07	429.40
486.44	432.32
486.80	435.62
487.17	439.00
487.53	442.66
487.90	446.50
488.26	450.68
488.62	455.08
488.99	459.47
489.35	464.07
489.72	469.01
490.08	474.23
490.44	479.55
490.81	485.12
491.17	490.83
491.54	496.97
491.90	503.24
492.26	509.93
492.63	516.96
492.99	524.29
493.36	531.76
493.72	539.60
494.08	547.66
494.45	556.12
494.81	564.94
495.17	574.04
495.54	583.63
495.90	593.62
496.26	603.79
496.63	614.28
496.99	625.16
497.35	636.53
497.72	648.19
498.08	660.16
498.44	672.43
498.80	685.40
499.17	698.66
499.53	712.36
499.89	726.49
500.26	740.80
500.62	755.46
500.98	770.95
501.34	786.45
501.71	802.79
502.07	819.38
502.43	836.45
502.79	853.74
503.16	871.48
503.52	889.42
503.88	907.81
504.24	926.60
504.60	945.67
504.97	965.36
505.33	985.47
505.69	1006.62
506.05	1028.00
506.41	1049.26
506.78	1070.67
507.14	1092.69
507.50	1115.14
507.86	1137.98
508.22	1161.05
508.59	1184.01
508.95	1208.04
509.31	1232.47
509.67	1257.54
510.03	1282.51
510.39	1307.39
510.75	1332.38
511.12	1357.79
511.48	1383.28
511.84	1408.80
512.20	1434.70
512.56	1461.59
512.92	1488.28
513.28	1514.36
513.64	1540.82
514.00	1567.63
514.37	1594.75
514.73	1621.87
515.09	1648.32
515.45	1675.15
515.81	1702.07
516.17	1728.72
516.53	1754.74
516.89	1780.65
517.25	1806.86
517.61	1832.84
517.97	1859.48
518.33	1885.53
518.69	1911.39
519.05	1937.78
519.41	1964.27
519.77	1990.63
520.13	2015.64
520.49	2040.74
520.85	2066.18
521.21	2091.07
521.57	2116.21
521.93	2140.41
522.29	2165.12
522.65	2189.76
523.01	2214.00
523.37	2237.54
523.73	2261.84
524.09	2285.91
524.45	2309.49
524.81	2332.45
525.17	2355.22
525.53	2377.31
525.89	2399.72
526.25	2421.83
526.61	2442.32
526.97	2462.84
527.33	2483.21
527.68	2503.24
528.04	2522.94
528.40	2541.31
528.76	2559.94
529.12	2578.20
529.48	2596.87
529.84	2612.85
530.20	2629.19
530.56	2644.74
530.91	2660.56
531.27	2675.85
531.63	2690.03
531.99	2704.19
532.35	2717.87
532.71	2731.17
533.07	2744.73
533.42	2756.41
533.78	2768.42
534.14	2781.32
534.50	2793.07
534.86	2805.28
535.21	2815.54
535.57	2825.59
535.93	2835.47
536.29	2843.47
536.65	2851.33
537.00	2857.78
537.36	2865.72
537.72	2872.64
538.08	2878.97
538.44	2884.29
538.79	2889.19
539.15	2892.74
539.51	2895.52
539.87	2897.18
540.22	2897.44
540.58	2897.95
540.94	2899.39
541.29	2899.41
541.65	2898.18
542.01	2896.48
542.37	2893.34
542.72	2891.52
543.08	2888.13
543.44	2885.07
543.79	2881.57
544.15	2877.37
544.51	2873.36
544.87	2868.21
545.22	2862.16
545.58	2856.07
545.94	2850.06
546.29	2842.50
546.65	2835.33
547.01	2828.18
547.36	2821.47
547.72	2814.93
548.07	2806.60
548.43	2797.22
548.79	2787.64
549.14	2778.37
549.50	2769.22
549.86	2759.11
550.21	2747.53
550.57	2736.98
550.92	2724.66
551.28	2712.93
551.64	2701.30
551.99	2689.33
552.35	2677.00
552.70	2664.51
553.06	2652.43
553.41	2639.86
553.77	2627.20
554.13	2614.57
554.48	2600.89
554.84	2586.55
555.19	2572.49
555.55	2558.31
555.90	2544.56
556.26	2531.14
556.61	2516.52
556.97	2500.99
557.32	2485.97
557.68	2471.28
558.03	2456.26
558.39	2442.19
558.74	2428.67
559.10	2413.26
559.45	2398.25
559.81	2383.91
560.16	2369.18
560.52	2354.29
560.87	2339.55
561.23	2324.48
561.58	2309.85
561.94	2294.72
562.29	2279.05
562.64	2263.63
563.00	2248.38
563.35	2233.17
563.71	2217.62
564.06	2202.24
564.42	2187.45
564.77	2172.65
565.12	2157.53
565.48	2142.18
565.83	2127.14
566.19	2111.96
566.54	2097.16
566.89	2081.74
567.25	2066.17
567.60	2051.54
567.96	2035.96
568.31	2019.35
568.66	2003.76
569.02	1988.69
569.37	1974.16
569.72	1960.28
570.08	1945.88
570.43	1930.90
570.78	1915.80
571.14	1900.43
571.49	1885.20
571.84	1870.21
572.20	1854.03
572.55	1838.70
572.90	1823.48
573.26	1808.14
573.61	1792.29
573.96	1776.95
574.31	1761.37
574.67	1745.71
575.02	1729.64
575.37	1713.78
575.72	1698.58
576.08	1683.04
576.43	1666.88
576.78	1650.92
577.13	1635.14
577.49	1619.61
577.84	1604.52
578.19	1588.94
578.54	1573.53
578.90	1558.01
579.25	1542.35
579.60	1527.81
579.95	1513.03
580.30	1498.14
580.66	1483.01
581.01	1467.90
581.36	1453.00
581.71	1438.92
582.06	1424.74
582.42	1410.48
582.77	1396.69
583.12	1383.09
583.47	1369.39
583.82	1355.87
584.17	1341.91
584.53	1328.05
584.88	1314.41
585.23	1300.66
585.58	1287.34
585.93	1273.94
586.28	1261.49
586.63	1248.88
586.98	1235.91
587.34	1223.27
587.69	1210.50
588.04	1198.11
588.39	1185.99
588.74	1173.39
589.09	1160.95
589.44	1148.27
589.79	1136.12
590.14	1124.05
590.49	1112.06
590.84	1100.32
591.19	1088.90
591.54	1077.57
591.89	1065.79
592.25	1054.44
592.60	1042.92
592.95	1031.56
593.30	1020.55
593.65	1009.29
594.00	998.28
594.35	988.18
594.70	977.37
595.05	967.21
595.40	956.81
595.75	946.27
596.10	936.40
596.45	926.53
596.80	916.96
597.15	907.46
597.50	897.93
597.85	888.54
598.19	879.21
598.54	869.90
598.89	861.14
599.24	852.78
599.59	844.22
599.94	836.32
600.29	828.41
600.64	820.32
600.99	812.06
601.34	804.10
601.69	795.65
602.04	788.08
602.39	780.37
602.74	772.87
603.08	765.55
603.43	758.16
603.78	750.73
604.13	743.42
604.48	736.18
604.83	729.11
605.18	722.17
605.53	715.36
605.87	708.51
606.22	701.76
606.57	694.93
606.92	688.03
607.27	681.13
607.62	674.46
607.96	668.06
608.31	662.12
608.66	656.13
609.01	650.38
609.36	644.59
609.70	638.74
610.05	632.95
610.40	627.30
610.75	621.63
611.10	616.20
611.44	610.77
611.79	605.42
612.14	600.02
612.49	594.72
612.83	589.68
613.18	584.64
613.53	579.62
613.88	574.79
614.22	570.29
614.57	565.71
614.92	561.21
615.27	556.84
615.61	552.35
615.96	547.89
616.31	543.47
616.65	539.19
617.00	535.02
617.35	530.89
617.70	526.78
618.04	522.83
618.39	518.96
618.74	515.32
619.08	511.66
619.43	508.10
619.78	504.49
620.12	500.88
620.47	497.53
620.82	494.22
621.16	490.91
621.51	487.64
621.85	484.40
622.20	481.24
622.55	478.01
622.89	474.84
623.24	471.86
623.59	468.90
623.93	466.07
624.28	463.36
624.62	460.86
624.97	458.34
625.32	455.73
625.66	453.09
626.01	450.43
626.35	447.92
626.70	445.34
627.04	442.97
627.39	440.56
627.73	438.20
628.08	435.92
628.43	433.65
628.77	431.32
629.12	429.12
629.46	427.02
629.81	425.05
630.15	423.02
630.50	420.99
630.84	419.01
631.19	417.06
631.53	415.19
631.88	413.15
632.22	411.23
632.57	409.56
632.91	407.86
633.26	406.24
633.60	404.64
633.95	403.12
634.29	401.46
634.64	399.87
634.98	398.17
635.32	396.64
635.67	395.24
636.01	393.84
636.36	392.48
636.70	391.21
637.05	389.78
637.39	388.49
637.73	387.20
638.08	385.98
638.42	384.80
638.77	383.49
639.11	382.15
639.45	380.85
639.80	379.50
640.14	378.25
640.49	376.98
640.83	375.71
641.17	374.48
641.52	373.30
641.86	372.14
642.20	371.14
642.55	369.94
642.89	368.77
643.23	367.68
643.58	366.70
643.92	365.55
644.26	364.51
644.61	363.51
644.95	362.45
645.29	361.32
645.64	360.18
645.98	359.16
646.32	358.25
646.66	357.28
647.01	356.36
647.35	355.50
647.69	354.62
648.04	353.80
648.38	352.93
648.72	352.10
649.06	351.26
649.41	350.36
649.75	349.54
650.09	348.75
650.43	347.93
650.78	347.08
651.12	346.27
651.46	345.47
651.80	344.70
652.14	343.99
652.49	343.33
652.83	342.60
653.17	341.83
653.51	341.11
653.85	340.49
654.20	339.80
654.54	339.01
654.88	338.27
655.22	337.60
655.56	336.88
655.90	336.19
656.25	335.54
656.59	334.89
656.93	334.29
657.27	333.72
657.61	333.08
657.95	332.48
658.29	331.87
658.64	331.29
658.98	330.64
659.32	330.02
659.66	329.43
660.00	328.89
660.34	328.34
660.68	327.73
661.02	327.06
661.36	326.46
661.70	325.90
662.05	325.35
662.39	324.79
662.73	324.33
663.07	323.90
663.41	323.42
663.75	322.90
664.09	322.37
664.43	321.74
664.77	321.22
665.11	320.63
665.45	320.10
665.79	319.60
666.13	319.07
666.47	318.53
666.81	317.96
667.15	317.36
667.49	316.89
667.83	316.47
668.17	316.03
668.51	315.61
668.85	315.20
669.19	314.84
669.53	314.30
669.87	313.76
670.21	313.21
670.55	312.70
670.89	312.30
671.23	311.87
671.57	311.49
671.91	311.13
672.25	310.80
672.58	310.47
672.92	310.03
673.26	309.70
673.60	309.34
673.94	308.98
674.28	308.65
674.62	308.28
674.96	307.83
675.30	307.44
675.64	307.00
675.97	306.54
676.31	306.06
676.65	305.66
676.99	305.33
677.33	304.90
677.67	304.52
678.01	304.03
678.34	303.62
678.68	303.23
679.02	302.79
679.36	302.36
679.70	301.91
680.04	301.53
680.37	301.12
680.71	300.74
681.05	300.38
681.39	299.96
681.73	299.51
682.06	299.10
682.40	298.71
682.74	298.36
683.08	298.08
683.42	297.70
683.75	297.36
684.09	296.90
684.43	296.52
684.77	296.10
685.10	295.72
685.44	295.34
685.78	294.93
686.12	294.53
686.45	294.14
686.79	293.69
687.13	293.28
687.46	292.84
687.80	292.43
688.14	291.95
688.48	291.54
688.81	291.13
689.15	290.78
689.49	290.34
689.82	289.92
690.16	289.39
690.50	288.94
690.83	288.51
691.17	288.05
691.51	287.64
691.84	287.27
692.18	286.84
692.52	286.37
692.85	285.94
693.19	285.57
693.52	285.13
693.86	284.72
694.20	284.30
694.53	283.89
694.87	283.43
695.21	283.00
695.54	282.57
695.88	282.12
696.21	281.63
696.55	281.19
696.88	280.75
697.22	280.34
697.56	279.95
697.89	279.48
698.23	279.09
698.56	278.65
698.90	278.23
699.23	277.79
699.57	277.41
699.90	277.00
700.24	276.55
700.58	276.16
700.91	275.81
701.25	275.57
701.58	275.25
701.92	274.92
702.25	274.56
702.59	274.17
702.92	273.79
703.26	273.40
703.59	273.01
703.93	272.76
704.26	272.40
704.60	272.01
704.93	271.64
705.26	271.24
705.60	270.91
705.93	270.49
706.27	270.19
706.60	269.86
706.94	269.56
707.27	269.16
707.61	268.79
707.94	268.38
708.27	267.85
708.61	267.41
708.94	267.00
709.28	266.63
709.61	266.27
709.94	265.95
710.28	265.62
710.61	265.31
710.95	264.81
711.28	264.59
711.61	264.23
711.95	263.92
712.28	263.58
712.61	263.21
712.95	262.97
713.28	262.70
713.61	262.32
713.95	261.94
714.28	261.63
714.61	261.30
714.95	260.98
715.28	260.66
715.61	260.36
715.95	260.08
716.28	259.76
716.61	259.50
716.95	259.18
717.28	258.89
717.61	258.59
717.94	258.31
718.28	257.89
718.61	257.60
718.94	257.30
719.27	257.02
719.61	256.77
719.94	256.46
720.27	256.10
720.60	255.83
720.94	255.56
721.27	255.30
721.60	255.07
721.93	254.81
722.27	254.59
722.60	254.34
722.93	254.07
723.26	253.83
723.59	253.54
723.93	253.32
724.26	253.08
724.59	252.83
724.92	252.60
725.25	252.44
725.59	252.22
725.92	252.01
726.25	251.78
726.58	251.56
726.91	251.32
727.24	251.11
727.57	250.88
727.91	250.62
728.24	250.44
728.57	250.20
728.90	250.00
729.23	249.73
729.56	249.60
729.89	249.39
730.22	249.18
730.55	248.97
730.89	248.76
731.22	248.55
731.55	248.35
731.88	248.15
732.21	247.91
732.54	247.71
732.87	247.52
733.20	247.34
733.53	247.15
733.86	246.99
734.19	246.79
734.52	246.65
734.85	246.61
735.18	246.40
735.51	246.28
735.84	246.12
736.17	246.01
736.50	245.74
736.83	245.78
737.16	245.61
737.49	245.44
737.82	245.25
738.15	245.11
738.48	244.94
738.81	244.76
739.14	244.58
739.47	244.41
739.80	244.23
740.13	244.08
740.46	243.89
740.79	243.70
741.12	243.53
741.45	243.34
741.78	243.07
742.11	242.96
742.44	242.75
742.77	242.62
743.10	242.43
743.43	242.27
743.75	241.93
744.08	242.05
744.41	241.89
744.74	241.74
745.07	241.56
745.40	241.45
745.73	241.38
746.06	241.25
746.39	241.14
746.71	240.99
747.04	240.83
747.37	240.70
747.70	240.60
748.03	240.48
748.36	240.38
748.68	240.26
749.01	240.07
749.34	239.95
749.67	239.82
750.00	239.73
750.33	239.74
750.65	239.63
750.98	239.25
751.31	239.14
751.64	239.04
751.97	239.03
752.29	238.89
752.62	238.70
752.95	238.57
753.28	238.44
753.60	238.31
753.93	238.24
754.26	238.15
754.59	237.98
754.91	237.85
755.24	237.72
755.57	237.62
755.90	237.51
756.22	237.38
756.55	237.25
756.88	237.10
757.20	236.88
757.53	236.73
757.86	236.63
758.19	236.54
758.51	236.43
758.84	236.24
759.17	236.13
759.49	236.04
759.82	236.03
760.15	235.96
760.47	235.87
760.80	235.72
761.13	235.65
761.45	235.57
761.78	235.48
762.11	235.40
762.43	235.30
762.76	235.21
763.08	235.16
763.41	235.09
763.74	235.02
764.06	234.94
764.39	234.87
764.71	234.79
765.04	234.69
765.37	234.60
765.69	234.52
766.02	234.44
766.34	234.36
766.67	234.21
767.00	234.17
767.32	234.20
767.65	234.24
767.97	234.16
768.30	234.10
768.62	234.03
768.95	233.94
769.27	233.86
769.60	233.82
769.92	233.73
770.25	233.63
770.57	233.54
770.90	233.48
771.22	233.40
771.55	233.35
771.87	233.31
772.20	233.25
772.52	233.35
772.85	233.50
773.17	233.45
773.50	233.39
773.82	233.30
774.15	233.16
774.47	232.99
774.80	232.93
775.12	232.87
775.45	232.82
775.77	232.79
776.09	232.76
776.42	232.71
776.74	232.70
777.07	232.66
777.39	232.62
777.72	232.56
778.04	232.55
778.36	232.48
778.69	232.44
779.01	232.41
779.33	232.22
779.66	231.97
779.98	231.91
780.31	231.88
780.63	231.92
780.95	231.91
781.28	231.87
781.60	231.81
781.92	231.78
782.25	231.74
782.57	231.71
782.89	231.66
783.22	231.61
783.54	231.55
783.86	231.52
784.19	231.48
784.51	231.50
784.83	231.44
785.16	231.40
785.48	231.36
785.80	231.33
786.12	231.31
786.45	231.28
786.77	231.27
787.09	231.23
787.42	231.13
787.74	231.11
788.06	231.09
788.38	231.06
788.71	231.01
789.03	230.99
789.35	230.98
789.67	230.93
789.99	230.92
790.32	230.88
790.64	230.87
790.96	231.01
791.28	230.92
791.61	230.88
791.93	230.86
792.25	230.83
792.57	230.93
792.89	230.87
793.21	230.86
793.54	230.81
793.86	230.77
794.18	230.75
794.50	230.69
794.82	230.67
795.14	230.67
795.47	230.69
795.79	230.66
796.11	230.59
796.43	230.57
796.75	230.54
797.07	230.52
797.39	230.49
797.71	230.32
798.04	230.31
798.36	230.31
798.68	230.28
799.00	230.27
799.32	230.16
799.64	230.17
799.96	230.15
800.28	230.16
800.60	230.14
800.92	230.13
801.24	230.10
801.56	230.09
801.89	230.05
802.21	230.03
802.53	229.98
802.85	230.00
803.17	230.06
803.49	230.01
803.81	229.98
804.13	229.95
804.45	229.91
804.77	229.90
805.09	229.88
805.41	229.85
805.73	229.80
806.05	229.73
806.37	229.70
806.69	229.67
807.01	229.63
807.33	229.63
807.65	229.55
807.97	229.61
808.28	229.57
808.60	229.56
808.92	229.51
809.24	229.61
809.56	229.57
809.88	229.49
810.20	229.48
810.52	229.50
810.84	229.46
811.16	229.43
811.48	229.40
811.80	229.45
812.12	229.43
812.43	229.45
812.75	229.46
813.07	229.42
813.39	229.42
813.71	229.38
814.03	229.35
814.35	229.35
814.67	229.26
814.98	229.24
815.30	229.22
815.62	229.19
815.94	229.05
816.26	229.06
816.58	229.01
816.89	229.02
817.21	228.96
817.53	228.96
817.85	228.96
818.17	228.95
818.48	228.87
818.80	228.89
819.12	228.85
819.44	228.81
819.76	228.78
820.07	228.77
820.39	228.76
820.71	228.76
821.03	228.75
821.34	228.72
821.66	228.74
821.98	228.75
822.30	228.73
822.61	228.84
822.93	228.80
823.25	228.79
823.57	228.76
823.88	228.78
824.20	228.76
824.52	228.77
824.83	228.76
825.15	228.73
825.47	228.70
825.79	228.71
826.10	228.69
826.42	228.67
826.74	228.68
827.05	228.67
827.37	228.67
827.69	228.66
828.00	228.66
828.32	228.63
828.64	228.60
828.95	228.69
829.27	228.62
829.58	228.62
829.90	228.64
830.22	228.64
830.53	228.61
830.85	228.59
831.17	228.53
831.48	228.53
831.80	228.53
832.11	228.52
832.43	228.48
832.75	228.48
833.06	228.59
833.38	228.53
833.69	228.52
834.01	228.51
834.32	228.51
834.64	228.49
834.96	228.48
835.27	228.48
835.59	228.42
835.90	228.39
836.22	228.38
836.53	228.35
836.85	228.33
837.16	228.50
837.48	228.51
837.79	228.56
838.11	228.56
838.42	228.56
838.74	228.58
839.05	228.57
839.37	228.56
839.68	228.44
840.00	228.44
840.31	228.46
840.63	228.43
840.94	228.41
841.26	228.39
841.57	228.38
841.88	228.39
842.20	228.35
842.51	228.32
842.83	228.31
843.14	228.47
843.46	228.45
843.77	228.35
844.08	228.33
844.40	228.27
844.71	228.25
845.03	228.23
845.34	228.20
845.65	228.19
845.97	228.19
846.28	228.20
846.60	228.21
846.91	228.17
847.22	228.17
847.54	228.21
847.85	228.22
848.16	228.21
848.48	228.18
848.79	228.24
849.10	228.27
849.42	228.27
849.73	228.10
850.04	228.10
850.36	228.04
850.67	228.07
850.98	228.08
851.30	228.09
851.61	228.09
851.92	228.09
852.23	228.14
852.55	228.14
852.86	228.14
853.17	228.16
853.49	228.20
853.80	228.23
854.11	228.23
854.42	228.24
854.74	228.22
855.05	228.23
855.36	228.13
855.67	228.12
855.99	228.12
856.30	228.33
856.61	228.32
856.92	228.32
857.23	228.32
857.55	228.30
857.86	228.28
858.17	228.31
858.48	228.27
858.79	228.23
859.11	228.24
859.42	228.23
859.73	228.20
860.04	228.18
860.35	228.13
860.66	228.07
860.98	228.06
861.29	228.09
861.60	228.07
861.91	228.11
862.22	228.09
862.53	228.06
862.84	227.85
863.16	227.88
863.47	227.85
863.78	227.83
864.09	227.84
864.40	227.85
864.71	227.85
865.02	227.88
865.33	227.85
865.64	227.82
865.95	227.82
866.27	227.93
866.58	227.91
866.89	227.94
867.20	227.93
867.51	227.90
867.82	227.89
868.13	227.95
868.44	227.91
868.75	227.94
869.06	227.95
869.37	227.97
869.68	227.92
869.99	227.95
870.30	227.97
870.61	227.98
870.92	227.95
871.23	227.93
871.54	227.94
871.85	227.99
872.16	228.01
872.47	227.99
872.78	227.90
873.09	227.91
873.40	227.89
873.71	227.91
874.02	227.92
874.33	227.90
874.64	227.85
874.95	227.88
875.26	227.84
875.56	227.83
875.87	227.81
876.18	227.81
876.49	227.99
876.80	227.97
877.11	227.94
877.42	227.95
877.73	227.95
878.04	227.92
878.35	227.91
878.66	227.91
878.96	227.90
879.27	227.89
879.58	227.88
879.89	227.87
880.20	227.91
880.51	227.90
880.82	227.91
881.12	227.92
881.43	227.89
881.74	227.87
882.05	227.86
882.36	227.87
882.67	227.89
882.97	227.69
883.28	227.68
883.59	227.67
883.90	227.69
884.21	227.71
884.51	227.70
884.82	227.68
885.13	227.67
885.44	227.67
885.74	227.68
886.05	227.67
886.36	227.68
886.67	227.61
886.98	227.71
887.28	227.72
887.59	227.71
887.90	227.72
888.20	227.71
888.51	227.75
888.82	227.72
889.13	227.73
889.43	227.88
889.74	227.88
890.05	227.87
890.35	227.85
890.66	227.81
890.97	227.79
891.28	227.77
891.58	227.77
891.89	227.77
892.20	227.74
892.50	227.73
892.81	227.72
893.12	227.72
893.42	227.62
893.73	227.62
894.04	227.62
894.34	227.63
894.65	227.63
894.95	227.60
895.26	227.61
895.57	227.69
895.87	227.51
896.18	227.54
896.48	227.54
896.79	227.54
897.10	227.57
897.40	227.57
897.71	227.60
898.01	227.58
898.32	227.60
898.63	227.60
898.93	227.62
899.24	227.62
899.54	227.61
899.85	227.60
900.15	227.58
900.46	227.58
900.76	227.59
901.07	227.59
901.38	227.58
901.68	227.60
901.99	227.51
902.29	227.52
902.60	227.50
902.90	227.49
903.21	227.49
903.51	227.47
903.82	227.51
904.12	227.51
904.43	227.52
904.73	227.51
905.03	227.52
905.34	227.68
905.64	227.68
905.95	227.68
906.25	227.68
906.56	227.68
906.86	227.68
907.17	227.66
907.47	227.67
907.77	227.65
908.08	227.62
908.38	227.63
908.69	227.64
908.99	227.67
909.30	227.68
909.60	227.68
909.90	227.67
910.21	227.62
910.51	227.60
910.81	227.60
911.12	227.61
911.42	227.61
911.73	227.42
912.03	227.44
912.33	227.47
912.64	227.46
912.94	227.44
913.24	227.41
913.55	227.40
913.85	227.38
914.15	227.42
914.46	227.44
914.76	227.43
915.06	227.41
915.37	227.38
915.67	227.36
915.97	227.37
916.27	227.35
916.58	227.36
916.88	227.35
917.18	227.33
917.49	227.44
917.79	227.44
918.09	227.47
918.39	227.51
918.70	227.49
919.00	227.50
919.30	227.59
919.60	227.59
919.91	227.57
920.21	227.58
920.51	227.54
920.81	227.52
921.12	227.56
921.42	227.55
921.72	227.56
922.02	227.57
922.32	227.60
922.63	227.61
922.93	227.71
923.23	227.73
923.53	227.71
923.83	227.59
924.13	227.60
924.44	227.60
924.74	227.62
925.04	227.67
925.34	227.66
925.64	227.59
925.94	227.60
926.24	227.70
926.55	227.68
926.85	227.71
927.15	227.71
927.45	227.70
927.75	227.71
928.05	227.70
928.35	227.69
928.65	227.72
928.95	227.74
929.26	227.65
929.56	227.68
929.86	227.71
930.16	227.71
930.46	227.69
930.76	227.69
931.06	227.61
931.36	227.56
931.66	227.59
931.96	227.61
932.26	227.62
932.56	227.55
932.86	227.57
933.16	227.56
933.46	227.54
933.76	227.51
934.06	227.55
934.36	227.61
934.66	227.60
934.96	227.57
935.26	227.57
935.56	227.59
935.86	227.55
936.16	227.52
936.46	227.50
936.76	227.50
937.06	227.47
937.36	227.47
937.66	227.48
937.96	227.47
938.26	227.42
938.56	227.41
938.86	227.42
939.16	227.45
939.46	227.46
939.76	227.48
940.06	227.49
940.35	227.45
940.65	227.36
940.95	227.38
941.25	227.34
941.55	227.32
941.85	227.31
942.15	227.34
942.45	227.39
942.75	227.38
943.04	227.39
943.34	227.43
943.64	227.42
943.94	227.40
944.24	227.40
944.54	227.41
944.84	227.41
945.13	227.38
945.43	227.35
945.73	227.33
946.03	227.32
946.33	227.30
946.62	227.28
946.92	227.28
947.22	227.29
947.52	227.30
947.82	227.32
948.11	227.29
948.41	227.25
948.71	227.20
949.01	227.22
949.31	227.20
949.60	227.19
949.90	227.21
950.20	227.20
950.50	227.19
950.79	227.18
951.09	227.20
951.39	227.20
951.69	227.18
951.98	227.22
952.28	227.23
952.58	227.23
952.87	227.24
953.17	227.27
953.47	227.25
953.76	227.25
954.06	227.22
954.36	227.20
954.66	227.21
954.95	227.27
955.25	227.27
955.55	227.29
955.84	227.26
956.14	227.27
956.44	227.29
956.73	227.26
957.03	227.28
957.32	227.28
957.62	227.28
957.92	227.32
958.21	227.30
958.51	227.50
958.81	227.52
959.10	227.54
959.40	227.57
959.69	227.58
959.99	227.61
960.29	227.61
960.58	227.61
960.88	227.68
961.17	227.65
961.47	227.67
961.76	227.65
962.06	227.69
962.36	227.67
962.65	227.68
962.95	227.69
963.24	227.67
963.54	227.67
963.83	227.68
964.13	227.67
964.42	227.65
964.72	227.50
965.01	227.50
965.31	227.49
965.60	227.44
965.90	227.55
966.19	227.50
966.49	227.51
966.78	227.51
967.08	227.48
967.37	227.49
967.67	227.45
967.96	227.49
968.26	227.48
968.55	227.50
968.85	227.49
969.14	227.49
969.43	227.50
969.73	227.49
970.02	227.48
970.32	227.47
970.61	227.45
970.91	227.40
971.20	227.37
971.49	227.36
971.79	227.38
972.08	227.25
972.38	227.28
972.67	227.26
972.96	227.29
973.26	227.26
973.55	227.31
973.85	227.30
974.14	227.28
974.43	227.30
974.73	227.27
975.02	227.26
975.31	227.26
975.61	227.26
975.90	227.25
976.19	227.22
976.49	227.24
976.78	227.25
977.07	227.25
977.37	227.27
977.66	227.28
977.95	227.25
978.24	227.27
978.54	227.30
978.83	227.29
979.12	227.28
979.42	227.28
979.71	227.24
980.00	227.24
980.29	227.25
980.59	227.21
980.88	227.26
981.17	227.25
981.46	227.25
981.76	227.25
982.05	227.31
982.34	227.32
982.63	227.32
982.93	227.32
983.22	227.36
983.51	227.37
983.80	227.40
984.09	227.42
984.39	227.40
984.68	227.37
984.97	227.39
985.26	227.38
985.55	227.39
985.85	227.36
986.14	227.38
986.43	227.40
986.72	227.40
987.01	227.34
987.30	227.33
987.59	227.32
987.89	227.33
988.18	227.26
988.47	227.25
988.76	227.23
989.05	227.21
989.34	227.18
989.63	227.22
989.92	227.18
990.22	227.16
990.51	227.16
990.80	227.15
991.09	227.16
991.38	227.18
991.67	227.16
991.96	227.15
992.25	227.15
992.54	227.11
992.83	227.11
993.12	227.11
993.41	227.15
993.70	227.22
993.99	227.25
994.28	227.28
994.58	227.31
994.87	227.30
995.16	227.29
995.45	227.28
995.74	227.22
996.03	227.25
996.32	227.28
996.61	227.32
996.90	227.31
997.19	227.30
997.48	227.29
997.77	227.28
998.06	227.29
998.34	227.28
998.63	227.29
998.92	227.30
999.21	227.33
999.50	227.33
999.79	227.26
1000.08	227.25
1000.37	227.25
1000.66	227.22
1000.95	227.26
1001.24	227.28
1001.53	227.30
1001.82	227.29
1002.11	227.24
1002.40	227.26
1002.68	227.29
1002.97	227.42
1003.26	227.40
1003.55	227.37
1003.84	227.39
1004.13	227.44
1004.42	227.43
1004.71	227.43
1004.99	227.41
1005.28	227.44
1005.57	227.43
1005.86	227.41
1006.15	227.40
1006.44	227.38
1006.72	227.40
1007.01	227.37
1007.30	227.38
1007.59	227.36
1007.88	227.37
1008.17	227.38
1008.45	227.33
1008.74	227.27
1009.03	227.18
1009.32	227.18
1009.60	227.19
1009.89	227.17
1010.18	227.10
1010.47	227.09
1010.76	227.09
1011.04	227.09
1011.33	227.08
1011.62	227.09
1011.91	227.11
1012.19	227.12
1012.48	227.12
1012.77	227.12
1013.05	227.18
1013.34	227.18
1013.63	227.17
1013.92	227.18
1014.20	227.18
1014.49	227.19
1014.78	227.21
1015.06	227.16
1015.35	227.15
1015.64	227.17
1015.92	227.21
1016.21	227.22
1016.50	227.22
1016.78	227.24
1017.07	227.26
1017.36	227.23
1017.64	227.21
1017.93	227.22
1018.22	227.21
1018.50	227.21
1018.79	227.20
1019.08	227.14
1019.36	227.15
1019.65	227.13
1019.93	227.17
1020.22	227.20
1020.51	227.29
1020.79	227.27
1021.08	226.95
1021.36	226.98
1021.65	227.21
1021.94	227.03
1022.22	227.29
1022.51	226.87
1022.79	227.96
1023.08	227.40
1023.36	229.36
1023.65	226.76
>>>>>End Processed Spectral Data<<<<<
