SpectraSuite Data File
++++++++++++++++++++++++++++++++++++
Date: Tue Oct 06 11:20:34 EDT 2015
User: lab3
Dark Spectrum Present: No
Reference Spectrum Present: No
Number of Sampled Component Spectra: 1
Spectrometers: USB2E7196
Integration Time (usec): 66000 (USB2E7196)
Spectra Averaged: 1000 (USB2E7196)
Boxcar Smoothing: 10 (USB2E7196)
Correct for Electrical Dark: No (USB2E7196)
Strobe/Lamp Enabled: No (USB2E7196)
Correct for Detector Non-linearity: No (USB2E7196)
Correct for Stray Light: No (USB2E7196)
Number of Pixels in Processed Spectrum: 2048
>>>>>Begin Processed Spectral Data<<<<<
339.09	0.00
339.48	216.06
339.86	217.56
340.24	218.88
340.63	220.27
341.01	224.24
341.39	223.00
341.78	224.50
342.16	225.81
342.54	225.90
342.93	214.47
343.31	225.30
343.69	225.84
344.07	226.30
344.46	226.73
344.84	227.15
345.22	227.35
345.60	227.62
345.99	227.81
346.37	227.95
346.75	228.08
347.13	228.15
347.52	228.24
347.90	228.35
348.28	228.40
348.66	228.48
349.05	228.47
349.43	228.54
349.81	228.62
350.19	228.67
350.57	228.74
350.96	228.84
351.34	228.95
351.72	229.05
352.10	229.17
352.48	229.24
352.87	229.28
353.25	229.35
353.63	229.40
354.01	229.47
354.39	229.53
354.77	229.61
355.15	229.73
355.54	229.77
355.92	229.78
356.30	229.85
356.68	230.03
357.06	230.10
357.44	230.14
357.82	230.20
358.20	230.41
358.58	230.47
358.97	230.53
359.35	230.63
359.73	230.72
360.11	230.77
360.49	230.84
360.87	230.89
361.25	230.95
361.63	231.06
362.01	231.11
362.39	231.15
362.77	231.20
363.15	231.22
363.53	231.26
363.91	231.31
364.29	231.34
364.67	231.20
365.05	231.23
365.43	231.26
365.81	231.30
366.19	231.26
366.57	231.33
366.95	231.33
367.33	231.29
367.71	231.29
368.09	231.33
368.47	231.31
368.85	231.31
369.23	231.33
369.61	231.25
369.99	231.30
370.37	231.31
370.75	231.43
371.13	231.38
371.51	231.32
371.89	231.30
372.27	231.29
372.65	231.27
373.03	231.22
373.41	231.18
373.78	231.13
374.16	231.00
374.54	230.90
374.92	230.85
375.30	230.81
375.68	230.71
376.06	230.67
376.44	230.61
376.82	230.57
377.19	230.53
377.57	230.48
377.95	230.36
378.33	230.30
378.71	230.10
379.09	230.06
379.47	230.05
379.84	229.98
380.22	229.91
380.60	229.84
380.98	229.79
381.36	229.75
381.73	229.67
382.11	229.65
382.49	229.62
382.87	229.56
383.25	229.52
383.62	229.69
384.00	229.60
384.38	229.58
384.76	229.58
385.13	229.60
385.51	229.57
385.89	229.52
386.27	229.48
386.64	229.48
387.02	229.43
387.40	229.37
387.78	229.37
388.15	229.35
388.53	229.31
388.91	229.28
389.29	229.24
389.66	229.24
390.04	229.20
390.42	229.22
390.79	229.21
391.17	229.20
391.55	228.99
391.92	229.00
392.30	229.01
392.68	228.96
393.05	228.95
393.43	228.96
393.81	228.99
394.18	228.98
394.56	228.98
394.94	229.04
395.31	229.05
395.69	229.11
396.06	229.16
396.44	229.21
396.82	229.23
397.19	229.37
397.57	229.40
397.95	229.48
398.32	229.46
398.70	229.54
399.07	229.64
399.45	229.70
399.82	229.76
400.20	229.82
400.58	229.90
400.95	229.92
401.33	230.04
401.70	230.27
402.08	230.42
402.45	230.56
402.83	230.72
403.20	230.89
403.58	231.04
403.95	231.24
404.33	231.47
404.71	231.68
405.08	231.99
405.46	232.23
405.83	232.51
406.21	232.81
406.58	233.14
406.96	233.47
407.33	233.83
407.70	234.25
408.08	234.83
408.45	235.35
408.83	235.89
409.20	236.39
409.58	236.85
409.95	237.47
410.33	238.14
410.70	238.78
411.08	239.54
411.45	240.33
411.82	241.15
412.20	242.09
412.57	243.20
412.95	244.08
413.32	245.23
413.69	246.41
414.07	247.67
414.44	249.03
414.82	250.43
415.19	252.08
415.56	253.76
415.94	255.49
416.31	257.41
416.68	259.37
417.06	261.64
417.43	263.75
417.81	266.19
418.18	268.68
418.55	271.40
418.93	274.23
419.30	277.19
419.67	280.32
420.04	283.55
420.42	286.93
420.79	290.82
421.16	294.77
421.54	298.75
421.91	302.91
422.28	307.24
422.66	311.92
423.03	316.34
423.40	321.02
423.77	326.01
424.15	331.12
424.52	336.40
424.89	342.11
425.26	347.79
425.64	353.07
426.01	358.98
426.38	365.03
426.75	371.26
427.13	377.61
427.50	384.27
427.87	391.17
428.24	398.10
428.61	404.75
428.99	411.89
429.36	419.82
429.73	427.39
430.10	434.92
430.47	442.62
430.85	450.63
431.22	459.14
431.59	467.84
431.96	476.31
432.33	485.76
432.70	494.76
433.08	505.46
433.45	515.54
433.82	525.44
434.19	536.51
434.56	547.37
434.93	557.91
435.30	568.36
435.68	580.25
436.05	591.87
436.42	603.49
436.79	614.10
437.16	625.55
437.53	637.88
437.90	650.22
438.27	662.25
438.64	675.19
439.01	686.97
439.38	697.89
439.75	708.44
440.13	720.44
440.50	731.85
440.87	740.86
441.24	750.80
441.61	761.72
441.98	769.72
442.35	779.23
442.72	788.95
443.09	798.30
443.46	804.42
443.83	809.03
444.20	812.79
444.57	818.34
444.94	821.73
445.31	825.10
445.68	827.96
446.05	830.13
446.42	829.85
446.79	829.33
447.16	828.87
447.53	828.55
447.90	825.09
448.27	821.68
448.64	816.39
449.01	812.80
449.37	805.32
449.74	798.62
450.11	789.86
450.48	780.23
450.85	770.45
451.22	761.98
451.59	753.73
451.96	746.40
452.33	735.63
452.70	725.97
453.07	714.33
453.43	702.75
453.80	691.46
454.17	680.66
454.54	670.61
454.91	659.23
455.28	648.43
455.65	638.16
456.02	627.45
456.38	618.80
456.75	607.67
457.12	598.66
457.49	589.54
457.86	581.00
458.23	573.49
458.59	565.22
458.96	556.71
459.33	549.25
459.70	541.62
460.07	535.73
460.43	528.85
460.80	522.35
461.17	516.69
461.54	510.62
461.91	504.96
462.27	499.21
462.64	494.50
463.01	489.12
463.38	483.77
463.74	478.91
464.11	474.63
464.48	470.75
464.85	466.53
465.21	463.28
465.58	459.70
465.95	455.60
466.32	452.30
466.68	449.08
467.05	445.84
467.42	442.67
467.78	439.34
468.15	436.24
468.52	433.98
468.88	430.98
469.25	428.25
469.62	426.06
469.98	423.65
470.35	421.51
470.72	419.60
471.08	417.60
471.45	415.93
471.82	414.06
472.18	412.10
472.55	410.86
472.92	409.32
473.28	408.08
473.65	406.76
474.02	405.55
474.38	404.53
474.75	403.90
475.11	403.01
475.48	402.57
475.85	402.16
476.21	401.91
476.58	401.74
476.94	401.94
477.31	401.98
477.67	402.10
478.04	402.41
478.41	402.83
478.77	403.43
479.14	403.78
479.50	404.58
479.87	405.58
480.23	406.56
480.60	407.50
480.96	408.46
481.33	409.91
481.69	411.32
482.06	412.73
482.42	414.04
482.79	415.66
483.15	417.57
483.52	419.67
483.88	421.73
484.25	423.91
484.61	426.20
484.98	428.65
485.34	431.42
485.71	434.29
486.07	437.35
486.44	440.38
486.80	443.77
487.17	447.22
487.53	451.03
487.90	455.00
488.26	459.33
488.62	463.87
488.99	468.44
489.35	473.26
489.72	478.47
490.08	483.91
490.44	489.44
490.81	495.18
491.17	501.06
491.54	507.30
491.90	513.71
492.26	520.50
492.63	527.62
492.99	535.03
493.36	542.70
493.72	550.77
494.08	559.01
494.45	567.68
494.81	576.72
495.17	585.96
495.54	595.72
495.90	605.91
496.26	616.35
496.63	626.99
496.99	638.02
497.35	649.50
497.72	661.35
498.08	673.62
498.44	686.14
498.80	699.46
499.17	713.13
499.53	727.20
499.89	741.73
500.26	756.33
500.62	771.22
500.98	786.79
501.34	802.54
501.71	819.03
502.07	835.78
502.43	853.04
502.79	870.36
503.16	888.14
503.52	906.10
503.88	924.50
504.24	943.38
504.60	962.50
504.97	982.03
505.33	1002.01
505.69	1023.01
506.05	1044.05
506.41	1064.91
506.78	1086.06
507.14	1108.05
507.50	1130.45
507.86	1153.38
508.22	1176.38
508.59	1199.21
508.95	1222.82
509.31	1246.92
509.67	1271.52
510.03	1295.96
510.39	1320.70
510.75	1345.57
511.12	1370.68
511.48	1395.64
511.84	1420.61
512.20	1445.97
512.56	1471.96
512.92	1497.74
513.28	1522.98
513.64	1548.63
514.00	1574.37
514.37	1600.41
514.73	1626.22
515.09	1651.43
515.45	1676.77
515.81	1702.10
516.17	1727.47
516.53	1752.20
516.89	1776.90
517.25	1801.77
517.61	1826.41
517.97	1851.30
518.33	1875.48
518.69	1899.46
519.05	1923.65
519.41	1947.81
519.77	1971.89
520.13	1995.38
520.49	2018.84
520.85	2042.47
521.21	2065.66
521.57	2089.28
521.93	2111.58
522.29	2134.27
522.65	2156.54
523.01	2178.73
523.37	2200.16
523.73	2221.92
524.09	2243.77
524.45	2265.33
524.81	2286.13
525.17	2306.63
525.53	2326.41
525.89	2346.74
526.25	2366.34
526.61	2384.89
526.97	2403.51
527.33	2421.78
527.68	2438.98
528.04	2455.59
528.40	2471.14
528.76	2487.20
529.12	2501.94
529.48	2517.36
529.84	2531.47
530.20	2546.41
530.56	2560.23
530.91	2574.26
531.27	2587.22
531.63	2599.18
531.99	2610.52
532.35	2620.79
532.71	2630.78
533.07	2641.14
533.42	2649.85
533.78	2659.31
534.14	2669.25
534.50	2677.83
534.86	2686.33
535.21	2692.90
535.57	2699.75
535.93	2707.00
536.29	2712.97
536.65	2719.01
537.00	2722.94
537.36	2727.25
537.72	2729.98
538.08	2732.55
538.44	2733.85
538.79	2735.78
539.15	2736.88
539.51	2737.57
539.87	2738.32
540.22	2737.46
540.58	2736.93
540.94	2736.22
541.29	2734.40
541.65	2730.94
542.01	2727.58
542.37	2723.15
542.72	2720.63
543.08	2716.42
543.44	2712.06
543.79	2706.13
544.15	2699.84
544.51	2694.53
544.87	2687.35
545.22	2679.70
545.58	2671.84
545.94	2664.61
546.29	2655.95
546.65	2647.13
547.01	2638.30
547.36	2629.13
547.72	2619.94
548.07	2609.35
548.43	2598.60
548.79	2586.86
549.14	2575.99
549.50	2564.87
549.86	2553.38
550.21	2540.31
550.57	2528.41
550.92	2514.37
551.28	2501.30
551.64	2488.81
551.99	2476.07
552.35	2463.28
552.70	2450.51
553.06	2438.15
553.41	2424.98
553.77	2411.16
554.13	2397.31
554.48	2382.96
554.84	2368.36
555.19	2354.37
555.55	2339.97
555.90	2325.42
556.26	2311.78
556.61	2297.09
556.97	2281.62
557.32	2266.57
557.68	2251.53
558.03	2236.19
558.39	2221.75
558.74	2207.48
559.10	2191.38
559.45	2175.83
559.81	2161.18
560.16	2146.14
560.52	2130.81
560.87	2116.08
561.23	2100.89
561.58	2086.03
561.94	2070.48
562.29	2055.07
562.64	2039.59
563.00	2024.42
563.35	2009.92
563.71	1995.03
564.06	1980.04
564.42	1965.58
564.77	1950.99
565.12	1936.87
565.48	1922.66
565.83	1908.66
566.19	1894.54
566.54	1880.72
566.89	1865.82
567.25	1850.54
567.60	1836.34
567.96	1821.56
568.31	1806.20
568.66	1791.56
569.02	1777.16
569.37	1762.99
569.72	1748.99
570.08	1735.13
570.43	1720.91
570.78	1706.02
571.14	1691.12
571.49	1676.74
571.84	1663.12
572.20	1648.30
572.55	1633.70
572.90	1618.65
573.26	1603.47
573.61	1588.24
573.96	1573.68
574.31	1559.66
574.67	1545.87
575.02	1531.17
575.37	1516.37
575.72	1501.81
576.08	1487.67
576.43	1473.40
576.78	1459.25
577.13	1445.12
577.49	1431.12
577.84	1417.12
578.19	1403.25
578.54	1389.52
578.90	1375.75
579.25	1361.37
579.60	1348.04
579.95	1334.79
580.30	1321.52
580.66	1308.33
581.01	1295.35
581.36	1282.18
581.71	1268.96
582.06	1255.67
582.42	1242.66
582.77	1230.04
583.12	1217.61
583.47	1205.07
583.82	1192.75
584.17	1180.31
584.53	1168.14
584.88	1156.06
585.23	1143.97
585.58	1132.18
585.93	1120.49
586.28	1109.34
586.63	1098.15
586.98	1086.85
587.34	1075.88
587.69	1064.75
588.04	1053.99
588.39	1043.32
588.74	1032.42
589.09	1021.87
589.44	1011.18
589.79	1000.95
590.14	990.83
590.49	980.83
590.84	971.06
591.19	961.33
591.54	951.65
591.89	941.58
592.25	931.75
592.60	921.89
592.95	912.30
593.30	902.64
593.65	892.87
594.00	883.44
594.35	874.75
594.70	865.52
595.05	857.01
595.40	848.22
595.75	839.20
596.10	830.83
596.45	822.34
596.80	814.09
597.15	805.86
597.50	797.72
597.85	789.83
598.19	781.92
598.54	773.96
598.89	766.23
599.24	758.90
599.59	751.62
599.94	744.83
600.29	737.80
600.64	730.92
600.99	723.99
601.34	717.23
601.69	709.95
602.04	703.22
602.39	696.56
602.74	690.11
603.08	683.85
603.43	677.60
603.78	671.43
604.13	665.41
604.48	659.38
604.83	653.47
605.18	647.65
605.53	641.88
605.87	636.14
606.22	630.58
606.57	624.98
606.92	619.28
607.27	613.67
607.62	608.36
607.96	603.15
608.31	598.23
608.66	593.26
609.01	588.44
609.36	583.78
609.70	579.01
610.05	574.24
610.40	569.59
610.75	564.93
611.10	560.53
611.44	556.04
611.79	551.72
612.14	547.44
612.49	543.07
612.83	538.90
613.18	534.88
613.53	530.94
613.88	527.03
614.22	523.32
614.57	519.51
614.92	515.77
615.27	512.10
615.61	508.47
615.96	504.88
616.31	501.29
616.65	497.76
617.00	494.34
617.35	491.00
617.70	487.75
618.04	484.57
618.39	481.43
618.74	478.44
619.08	475.34
619.43	472.31
619.78	469.38
620.12	466.50
620.47	463.78
620.82	461.03
621.16	458.33
621.51	455.78
621.85	453.28
622.20	450.80
622.55	448.34
622.89	445.92
623.24	443.63
623.59	441.39
623.93	439.21
624.28	437.08
624.62	435.19
624.97	433.24
625.32	431.18
625.66	429.08
626.01	427.01
626.35	425.10
626.70	423.16
627.04	421.41
627.39	419.55
627.73	417.73
628.08	416.00
628.43	414.33
628.77	412.57
629.12	410.92
629.46	409.30
629.81	407.79
630.15	406.16
630.50	404.56
630.84	403.06
631.19	401.62
631.53	400.21
631.88	398.59
632.22	397.07
632.57	395.83
632.91	394.59
633.26	393.44
633.60	392.23
633.95	391.06
634.29	389.77
634.64	388.63
634.98	387.33
635.32	386.18
635.67	385.09
636.01	384.03
636.36	383.01
636.70	382.09
637.05	380.99
637.39	380.06
637.73	379.13
638.08	378.25
638.42	377.32
638.77	376.34
639.11	375.32
639.45	374.31
639.80	373.30
640.14	372.36
640.49	371.37
640.83	370.41
641.17	369.48
641.52	368.55
641.86	367.65
642.20	366.92
642.55	366.01
642.89	365.13
643.23	364.24
643.58	363.46
643.92	362.48
644.26	361.62
644.61	360.85
644.95	360.03
645.29	359.14
645.64	358.24
645.98	357.40
646.32	356.67
646.66	355.94
647.01	355.16
647.35	354.41
647.69	353.62
648.04	352.90
648.38	352.13
648.72	351.44
649.06	350.76
649.41	350.00
649.75	349.30
650.09	348.66
650.43	347.99
650.78	347.25
651.12	346.59
651.46	345.96
651.80	345.28
652.14	344.61
652.49	344.00
652.83	343.36
653.17	342.73
653.51	342.11
653.85	341.55
654.20	340.95
654.54	340.29
654.88	339.67
655.22	339.07
655.56	338.39
655.90	337.72
656.25	337.05
656.59	336.40
656.93	335.83
657.27	335.29
657.61	334.67
657.95	334.14
658.29	333.57
658.64	333.04
658.98	332.43
659.32	331.83
659.66	331.26
660.00	330.73
660.34	330.19
660.68	329.62
661.02	328.99
661.36	328.40
661.70	327.84
662.05	327.31
662.39	326.82
662.73	326.41
663.07	326.00
663.41	325.51
663.75	324.97
664.09	324.44
664.43	323.81
664.77	323.30
665.11	322.69
665.45	322.13
665.79	321.57
666.13	321.03
666.47	320.50
666.81	319.93
667.15	319.31
667.49	318.79
667.83	318.34
668.17	317.85
668.51	317.37
668.85	316.94
669.19	316.57
669.53	316.05
669.87	315.52
670.21	315.02
670.55	314.54
670.89	314.20
671.23	313.74
671.57	313.32
671.91	312.91
672.25	312.54
672.58	312.17
672.92	311.70
673.26	311.29
673.60	310.87
673.94	310.47
674.28	310.12
674.62	309.74
674.96	309.26
675.30	308.86
675.64	308.42
675.97	307.93
676.31	307.37
676.65	306.89
676.99	306.50
677.33	306.00
677.67	305.54
678.01	304.97
678.34	304.50
678.68	304.04
679.02	303.55
679.36	303.08
679.70	302.57
680.04	302.14
680.37	301.71
680.71	301.28
681.05	300.85
681.39	300.36
681.73	299.86
682.06	299.37
682.40	298.92
682.74	298.51
683.08	298.17
683.42	297.73
683.75	297.32
684.09	296.79
684.43	296.33
684.77	295.85
685.10	295.45
685.44	295.04
685.78	294.62
686.12	294.19
686.45	293.74
686.79	293.27
687.13	292.84
687.46	292.34
687.80	291.88
688.14	291.37
688.48	290.94
688.81	290.47
689.15	290.10
689.49	289.64
689.82	289.16
690.16	288.60
690.50	288.15
690.83	287.68
691.17	287.21
691.51	286.76
691.84	286.36
692.18	285.90
692.52	285.42
692.85	284.96
693.19	284.56
693.52	284.12
693.86	283.68
694.20	283.23
694.53	282.81
694.87	282.32
695.21	281.85
695.54	281.41
695.88	280.97
696.21	280.46
696.55	280.02
696.88	279.56
697.22	279.13
697.56	278.70
697.89	278.22
698.23	277.80
698.56	277.35
698.90	276.93
699.23	276.46
699.57	276.05
699.90	275.61
700.24	275.12
700.58	274.71
700.91	274.35
701.25	274.09
701.58	273.76
701.92	273.43
702.25	273.08
702.59	272.67
702.92	272.28
703.26	271.88
703.59	271.49
703.93	271.24
704.26	270.87
704.60	270.46
704.93	270.09
705.26	269.67
705.60	269.32
705.93	268.88
706.27	268.56
706.60	268.22
706.94	267.91
707.27	267.52
707.61	267.14
707.94	266.72
708.27	266.19
708.61	265.75
708.94	265.35
709.28	264.97
709.61	264.61
709.94	264.28
710.28	263.96
710.61	263.64
710.95	263.16
711.28	262.94
711.61	262.62
711.95	262.33
712.28	262.02
712.61	261.68
712.95	261.45
713.28	261.20
713.61	260.82
713.95	260.45
714.28	260.16
714.61	259.84
714.95	259.54
715.28	259.23
715.61	258.94
715.95	258.66
716.28	258.36
716.61	258.09
716.95	257.76
717.28	257.45
717.61	257.13
717.94	256.85
718.28	256.45
718.61	256.17
718.94	255.87
719.27	255.60
719.61	255.36
719.94	255.05
720.27	254.70
720.60	254.46
720.94	254.21
721.27	253.97
721.60	253.76
721.93	253.51
722.27	253.31
722.60	253.09
722.93	252.83
723.26	252.61
723.59	252.35
723.93	252.15
724.26	251.96
724.59	251.74
724.92	251.56
725.25	251.38
725.59	251.18
725.92	250.99
726.25	250.76
726.58	250.55
726.91	250.34
727.24	250.15
727.57	249.93
727.91	249.69
728.24	249.50
728.57	249.28
728.90	249.10
729.23	248.85
729.56	248.73
729.89	248.55
730.22	248.34
730.55	248.14
730.89	247.95
731.22	247.73
731.55	247.54
731.88	247.33
732.21	247.11
732.54	246.91
732.87	246.72
733.20	246.55
733.53	246.38
733.86	246.21
734.19	246.02
734.52	245.87
734.85	245.84
735.18	245.64
735.51	245.54
735.84	245.37
736.17	245.26
736.50	245.00
736.83	245.04
737.16	244.89
737.49	244.74
737.82	244.58
738.15	244.45
738.48	244.30
738.81	244.14
739.14	243.97
739.47	243.82
739.80	243.66
740.13	243.53
740.46	243.34
740.79	243.17
741.12	243.02
741.45	242.85
741.78	242.60
742.11	242.51
742.44	242.31
742.77	242.19
743.10	242.01
743.43	241.86
743.75	241.55
744.08	241.69
744.41	241.53
744.74	241.38
745.07	241.19
745.40	241.10
745.73	241.05
746.06	240.93
746.39	240.82
746.71	240.69
747.04	240.53
747.37	240.41
747.70	240.32
748.03	240.20
748.36	240.10
748.68	239.97
749.01	239.80
749.34	239.68
749.67	239.57
750.00	239.50
750.33	239.52
750.65	239.42
750.98	239.05
751.31	238.95
751.64	238.85
751.97	238.85
752.29	238.72
752.62	238.52
752.95	238.40
753.28	238.26
753.60	238.16
753.93	238.10
754.26	238.01
754.59	237.84
754.91	237.73
755.24	237.60
755.57	237.57
755.90	237.46
756.22	237.33
756.55	237.19
756.88	237.05
757.20	236.83
757.53	236.68
757.86	236.57
758.19	236.49
758.51	236.40
758.84	236.22
759.17	236.10
759.49	236.03
759.82	236.03
760.15	235.97
760.47	235.89
760.80	235.76
761.13	235.70
761.45	235.61
761.78	235.55
762.11	235.48
762.43	235.31
762.76	235.24
763.08	235.19
763.41	235.14
763.74	235.06
764.06	234.98
764.39	234.91
764.71	234.82
765.04	234.74
765.37	234.65
765.69	234.57
766.02	234.51
766.34	234.42
766.67	234.28
767.00	234.23
767.32	234.24
767.65	234.28
767.97	234.21
768.30	234.15
768.62	234.08
768.95	233.99
769.27	233.92
769.60	233.88
769.92	233.78
770.25	233.68
770.57	233.60
770.90	233.55
771.22	233.49
771.55	233.43
771.87	233.39
772.20	233.33
772.52	233.43
772.85	233.59
773.17	233.55
773.50	233.48
773.82	233.41
774.15	233.27
774.47	233.10
774.80	233.03
775.12	232.98
775.45	232.94
775.77	232.91
776.09	232.88
776.42	232.84
776.74	232.86
777.07	232.82
777.39	232.79
777.72	232.73
778.04	232.71
778.36	232.66
778.69	232.62
779.01	232.59
779.33	232.40
779.66	232.15
779.98	232.10
780.31	232.08
780.63	232.11
780.95	232.11
781.28	232.07
781.60	232.02
781.92	231.98
782.25	231.94
782.57	231.90
782.89	231.86
783.22	231.81
783.54	231.74
783.86	231.72
784.19	231.68
784.51	231.69
784.83	231.64
785.16	231.61
785.48	231.59
785.80	231.56
786.12	231.54
786.45	231.52
786.77	231.50
787.09	231.47
787.42	231.37
787.74	231.34
788.06	231.34
788.38	231.31
788.71	231.27
789.03	231.25
789.35	231.24
789.67	231.20
789.99	231.18
790.32	231.14
790.64	231.13
790.96	231.27
791.28	231.19
791.61	231.16
791.93	231.14
792.25	231.10
792.57	231.20
792.89	231.15
793.21	231.14
793.54	231.09
793.86	231.05
794.18	231.03
794.50	230.99
794.82	230.96
795.14	230.96
795.47	230.96
795.79	230.94
796.11	230.89
796.43	230.87
796.75	230.84
797.07	230.84
797.39	230.80
797.71	230.64
798.04	230.64
798.36	230.65
798.68	230.61
799.00	230.62
799.32	230.50
799.64	230.51
799.96	230.48
800.28	230.51
800.60	230.49
800.92	230.48
801.24	230.46
801.56	230.45
801.89	230.42
802.21	230.42
802.53	230.38
802.85	230.39
803.17	230.46
803.49	230.40
803.81	230.37
804.13	230.34
804.45	230.30
804.77	230.30
805.09	230.28
805.41	230.26
805.73	230.21
806.05	230.15
806.37	230.12
806.69	230.09
807.01	230.05
807.33	230.05
807.65	229.97
807.97	230.02
808.28	229.99
808.60	229.98
808.92	229.93
809.24	230.03
809.56	229.99
809.88	229.91
810.20	229.91
810.52	229.94
810.84	229.90
811.16	229.88
811.48	229.85
811.80	229.89
812.12	229.86
812.43	229.89
812.75	229.88
813.07	229.85
813.39	229.85
813.71	229.82
814.03	229.79
814.35	229.80
814.67	229.72
814.98	229.70
815.30	229.68
815.62	229.65
815.94	229.52
816.26	229.53
816.58	229.49
816.89	229.48
817.21	229.42
817.53	229.43
817.85	229.43
818.17	229.41
818.48	229.34
818.80	229.37
819.12	229.32
819.44	229.28
819.76	229.25
820.07	229.24
820.39	229.22
820.71	229.23
821.03	229.20
821.34	229.18
821.66	229.19
821.98	229.20
822.30	229.18
822.61	229.28
822.93	229.24
823.25	229.23
823.57	229.21
823.88	229.22
824.20	229.20
824.52	229.22
824.83	229.21
825.15	229.19
825.47	229.16
825.79	229.17
826.10	229.16
826.42	229.15
826.74	229.16
827.05	229.15
827.37	229.15
827.69	229.13
828.00	229.13
828.32	229.13
828.64	229.10
828.95	229.18
829.27	229.11
829.58	229.11
829.90	229.13
830.22	229.13
830.53	229.10
830.85	229.07
831.17	229.02
831.48	229.01
831.80	229.01
832.11	228.99
832.43	228.96
832.75	228.96
833.06	229.07
833.38	229.01
833.69	229.01
834.01	229.02
834.32	229.01
834.64	228.99
834.96	228.98
835.27	228.97
835.59	228.91
835.90	228.88
836.22	228.87
836.53	228.84
836.85	228.82
837.16	228.99
837.48	229.00
837.79	229.05
838.11	229.04
838.42	229.04
838.74	229.05
839.05	229.03
839.37	229.01
839.68	228.90
840.00	228.89
840.31	228.90
840.63	228.87
840.94	228.85
841.26	228.85
841.57	228.83
841.88	228.84
842.20	228.82
842.51	228.79
842.83	228.78
843.14	228.93
843.46	228.93
843.77	228.82
844.08	228.80
844.40	228.74
844.71	228.72
845.03	228.70
845.34	228.69
845.65	228.70
845.97	228.72
846.28	228.72
846.60	228.74
846.91	228.71
847.22	228.70
847.54	228.73
847.85	228.74
848.16	228.73
848.48	228.70
848.79	228.76
849.10	228.77
849.42	228.77
849.73	228.61
850.04	228.61
850.36	228.54
850.67	228.57
850.98	228.57
851.30	228.60
851.61	228.60
851.92	228.59
852.23	228.62
852.55	228.62
852.86	228.61
853.17	228.61
853.49	228.64
853.80	228.68
854.11	228.69
854.42	228.70
854.74	228.68
855.05	228.68
855.36	228.61
855.67	228.61
855.99	228.61
856.30	228.80
856.61	228.79
856.92	228.80
857.23	228.79
857.55	228.78
857.86	228.75
858.17	228.77
858.48	228.73
858.79	228.69
859.11	228.70
859.42	228.69
859.73	228.66
860.04	228.65
860.35	228.60
860.66	228.53
860.98	228.51
861.29	228.53
861.60	228.52
861.91	228.56
862.22	228.53
862.53	228.49
862.84	228.29
863.16	228.32
863.47	228.29
863.78	228.26
864.09	228.27
864.40	228.28
864.71	228.28
865.02	228.31
865.33	228.29
865.64	228.26
865.95	228.26
866.27	228.37
866.58	228.34
866.89	228.38
867.20	228.39
867.51	228.37
867.82	228.35
868.13	228.41
868.44	228.35
868.75	228.38
869.06	228.39
869.37	228.40
869.68	228.35
869.99	228.38
870.30	228.39
870.61	228.41
870.92	228.37
871.23	228.36
871.54	228.38
871.85	228.43
872.16	228.44
872.47	228.43
872.78	228.32
873.09	228.35
873.40	228.31
873.71	228.32
874.02	228.33
874.33	228.31
874.64	228.27
874.95	228.31
875.26	228.29
875.56	228.29
875.87	228.29
876.18	228.29
876.49	228.46
876.80	228.44
877.11	228.40
877.42	228.42
877.73	228.41
878.04	228.38
878.35	228.38
878.66	228.39
878.96	228.39
879.27	228.38
879.58	228.36
879.89	228.38
880.20	228.43
880.51	228.41
880.82	228.42
881.12	228.43
881.43	228.39
881.74	228.37
882.05	228.36
882.36	228.37
882.67	228.39
882.97	228.20
883.28	228.19
883.59	228.20
883.90	228.22
884.21	228.24
884.51	228.23
884.82	228.19
885.13	228.19
885.44	228.18
885.74	228.20
886.05	228.19
886.36	228.18
886.67	228.11
886.98	228.22
887.28	228.23
887.59	228.23
887.90	228.23
888.20	228.22
888.51	228.25
888.82	228.22
889.13	228.22
889.43	228.38
889.74	228.37
890.05	228.35
890.35	228.33
890.66	228.31
890.97	228.30
891.28	228.30
891.58	228.29
891.89	228.30
892.20	228.28
892.50	228.26
892.81	228.25
893.12	228.24
893.42	228.15
893.73	228.15
894.04	228.15
894.34	228.17
894.65	228.16
894.95	228.15
895.26	228.17
895.57	228.25
895.87	228.07
896.18	228.11
896.48	228.12
896.79	228.13
897.10	228.15
897.40	228.16
897.71	228.18
898.01	228.16
898.32	228.17
898.63	228.17
898.93	228.18
899.24	228.19
899.54	228.19
899.85	228.19
900.15	228.18
900.46	228.17
900.76	228.18
901.07	228.18
901.38	228.17
901.68	228.18
901.99	228.09
902.29	228.11
902.60	228.09
902.90	228.07
903.21	228.07
903.51	228.05
903.82	228.09
904.12	228.09
904.43	228.11
904.73	228.10
905.03	228.12
905.34	228.29
905.64	228.29
905.95	228.28
906.25	228.28
906.56	228.29
906.86	228.28
907.17	228.26
907.47	228.28
907.77	228.26
908.08	228.23
908.38	228.24
908.69	228.25
908.99	228.28
909.30	228.29
909.60	228.29
909.90	228.29
910.21	228.25
910.51	228.22
910.81	228.22
911.12	228.23
911.42	228.22
911.73	228.03
912.03	228.04
912.33	228.08
912.64	228.06
912.94	228.05
913.24	228.01
913.55	228.00
913.85	227.98
914.15	228.01
914.46	228.04
914.76	228.01
915.06	227.99
915.37	227.95
915.67	227.94
915.97	227.93
916.27	227.89
916.58	227.90
916.88	227.89
917.18	227.87
917.49	227.98
917.79	227.96
918.09	228.00
918.39	228.04
918.70	228.01
919.00	228.02
919.30	228.10
919.60	228.10
919.91	228.08
920.21	228.09
920.51	228.06
920.81	228.04
921.12	228.07
921.42	228.06
921.72	228.08
922.02	228.09
922.32	228.11
922.63	228.13
922.93	228.22
923.23	228.23
923.53	228.21
923.83	228.08
924.13	228.10
924.44	228.09
924.74	228.11
925.04	228.15
925.34	228.15
925.64	228.08
925.94	228.09
926.24	228.18
926.55	228.17
926.85	228.19
927.15	228.19
927.45	228.19
927.75	228.20
928.05	228.21
928.35	228.19
928.65	228.22
928.95	228.23
929.26	228.15
929.56	228.19
929.86	228.22
930.16	228.21
930.46	228.20
930.76	228.21
931.06	228.11
931.36	228.07
931.66	228.08
931.96	228.10
932.26	228.10
932.56	228.03
932.86	228.05
933.16	228.05
933.46	228.04
933.76	228.00
934.06	228.02
934.36	228.08
934.66	228.08
934.96	228.05
935.26	228.06
935.56	228.08
935.86	228.04
936.16	228.02
936.46	228.01
936.76	228.00
937.06	227.97
937.36	228.00
937.66	228.01
937.96	228.01
938.26	227.97
938.56	227.97
938.86	227.98
939.16	228.01
939.46	228.03
939.76	228.04
940.06	228.04
940.35	228.01
940.65	227.92
940.95	227.94
941.25	227.91
941.55	227.88
941.85	227.87
942.15	227.91
942.45	227.96
942.75	227.95
943.04	227.96
943.34	228.00
943.64	227.98
943.94	227.96
944.24	227.96
944.54	227.97
944.84	227.97
945.13	227.96
945.43	227.92
945.73	227.90
946.03	227.89
946.33	227.87
946.62	227.85
946.92	227.84
947.22	227.85
947.52	227.87
947.82	227.89
948.11	227.87
948.41	227.83
948.71	227.78
949.01	227.80
949.31	227.78
949.60	227.75
949.90	227.78
950.20	227.77
950.50	227.76
950.79	227.75
951.09	227.77
951.39	227.77
951.69	227.74
951.98	227.79
952.28	227.81
952.58	227.81
952.87	227.82
953.17	227.85
953.47	227.82
953.76	227.81
954.06	227.78
954.36	227.76
954.66	227.76
954.95	227.81
955.25	227.81
955.55	227.83
955.84	227.81
956.14	227.81
956.44	227.83
956.73	227.81
957.03	227.82
957.32	227.81
957.62	227.80
957.92	227.85
958.21	227.82
958.51	228.01
958.81	228.03
959.10	228.05
959.40	228.08
959.69	228.10
959.99	228.13
960.29	228.13
960.58	228.12
960.88	228.18
961.17	228.16
961.47	228.18
961.76	228.15
962.06	228.19
962.36	228.17
962.65	228.18
962.95	228.19
963.24	228.17
963.54	228.18
963.83	228.19
964.13	228.17
964.42	228.15
964.72	228.00
965.01	228.00
965.31	227.98
965.60	227.93
965.90	228.05
966.19	228.00
966.49	228.02
966.78	228.02
967.08	228.00
967.37	228.00
967.67	227.97
967.96	228.00
968.26	227.98
968.55	228.01
968.85	228.00
969.14	228.00
969.43	227.99
969.73	227.98
970.02	227.97
970.32	227.96
970.61	227.95
970.91	227.89
971.20	227.87
971.49	227.86
971.79	227.88
972.08	227.75
972.38	227.77
972.67	227.76
972.96	227.80
973.26	227.75
973.55	227.80
973.85	227.80
974.14	227.78
974.43	227.79
974.73	227.76
975.02	227.76
975.31	227.76
975.61	227.76
975.90	227.75
976.19	227.73
976.49	227.74
976.78	227.75
977.07	227.75
977.37	227.78
977.66	227.80
977.95	227.78
978.24	227.80
978.54	227.83
978.83	227.81
979.12	227.80
979.42	227.81
979.71	227.76
980.00	227.76
980.29	227.77
980.59	227.74
980.88	227.79
981.17	227.79
981.46	227.78
981.76	227.78
982.05	227.83
982.34	227.84
982.63	227.85
982.93	227.86
983.22	227.89
983.51	227.88
983.80	227.90
984.09	227.92
984.39	227.91
984.68	227.89
984.97	227.91
985.26	227.89
985.55	227.91
985.85	227.89
986.14	227.92
986.43	227.94
986.72	227.93
987.01	227.89
987.30	227.89
987.59	227.88
987.89	227.91
988.18	227.86
988.47	227.84
988.76	227.83
989.05	227.81
989.34	227.79
989.63	227.84
989.92	227.80
990.22	227.78
990.51	227.78
990.80	227.76
991.09	227.77
991.38	227.80
991.67	227.78
991.96	227.76
992.25	227.76
992.54	227.72
992.83	227.72
993.12	227.71
993.41	227.74
993.70	227.80
993.99	227.81
994.28	227.84
994.58	227.87
994.87	227.85
995.16	227.85
995.45	227.84
995.74	227.79
996.03	227.82
996.32	227.84
996.61	227.89
996.90	227.88
997.19	227.87
997.48	227.87
997.77	227.86
998.06	227.87
998.34	227.85
998.63	227.87
998.92	227.87
999.21	227.91
999.50	227.91
999.79	227.85
1000.08	227.85
1000.37	227.85
1000.66	227.81
1000.95	227.85
1001.24	227.86
1001.53	227.89
1001.82	227.88
1002.11	227.83
1002.40	227.84
1002.68	227.86
1002.97	227.99
1003.26	227.96
1003.55	227.94
1003.84	227.96
1004.13	228.01
1004.42	228.01
1004.71	227.99
1004.99	227.98
1005.28	228.01
1005.57	227.98
1005.86	227.96
1006.15	227.94
1006.44	227.91
1006.72	227.94
1007.01	227.92
1007.30	227.92
1007.59	227.90
1007.88	227.91
1008.17	227.93
1008.45	227.90
1008.74	227.82
1009.03	227.74
1009.32	227.74
1009.60	227.74
1009.89	227.72
1010.18	227.64
1010.47	227.63
1010.76	227.63
1011.04	227.64
1011.33	227.62
1011.62	227.64
1011.91	227.65
1012.19	227.66
1012.48	227.67
1012.77	227.67
1013.05	227.73
1013.34	227.72
1013.63	227.70
1013.92	227.71
1014.20	227.71
1014.49	227.72
1014.78	227.75
1015.06	227.69
1015.35	227.69
1015.64	227.72
1015.92	227.75
1016.21	227.77
1016.50	227.78
1016.78	227.81
1017.07	227.82
1017.36	227.80
1017.64	227.78
1017.93	227.80
1018.22	227.79
1018.50	227.79
1018.79	227.78
1019.08	227.72
1019.36	227.72
1019.65	227.73
1019.93	227.77
1020.22	227.79
1020.51	227.87
1020.79	227.84
1021.08	227.64
1021.36	227.53
1021.65	227.64
1021.94	227.72
1022.22	227.77
1022.51	227.57
1022.79	228.53
1023.08	228.04
1023.36	229.67
1023.65	227.34
>>>>>End Processed Spectral Data<<<<<
