SpectraSuite Data File
++++++++++++++++++++++++++++++++++++
Date: Tue Oct 06 11:47:36 EDT 2015
User: lab3
Dark Spectrum Present: No
Reference Spectrum Present: No
Number of Sampled Component Spectra: 1
Spectrometers: USB2E7196
Integration Time (usec): 66000 (USB2E7196)
Spectra Averaged: 1000 (USB2E7196)
Boxcar Smoothing: 10 (USB2E7196)
Correct for Electrical Dark: No (USB2E7196)
Strobe/Lamp Enabled: No (USB2E7196)
Correct for Detector Non-linearity: No (USB2E7196)
Correct for Stray Light: No (USB2E7196)
Number of Pixels in Processed Spectrum: 2048
>>>>>Begin Processed Spectral Data<<<<<
339.09	0.00
339.48	216.59
339.86	218.04
340.24	219.27
340.63	220.61
341.01	224.91
341.39	223.51
341.78	224.89
342.16	226.33
342.54	226.47
342.93	214.93
343.31	225.79
343.69	226.34
344.07	226.80
344.46	227.26
344.84	227.67
345.22	227.87
345.60	228.14
345.99	228.36
346.37	228.50
346.75	228.62
347.13	228.71
347.52	228.81
347.90	228.93
348.28	228.97
348.66	229.06
349.05	229.05
349.43	229.12
349.81	229.20
350.19	229.26
350.57	229.34
350.96	229.45
351.34	229.56
351.72	229.65
352.10	229.77
352.48	229.83
352.87	229.89
353.25	229.96
353.63	230.01
354.01	230.06
354.39	230.15
354.77	230.23
355.15	230.34
355.54	230.38
355.92	230.40
356.30	230.47
356.68	230.64
357.06	230.72
357.44	230.76
357.82	230.81
358.20	231.02
358.58	231.07
358.97	231.14
359.35	231.22
359.73	231.31
360.11	231.36
360.49	231.42
360.87	231.46
361.25	231.52
361.63	231.62
362.01	231.68
362.39	231.70
362.77	231.74
363.15	231.74
363.53	231.77
363.91	231.80
364.29	231.82
364.67	231.68
365.05	231.68
365.43	231.72
365.81	231.76
366.19	231.70
366.57	231.77
366.95	231.76
367.33	231.73
367.71	231.71
368.09	231.74
368.47	231.73
368.85	231.71
369.23	231.72
369.61	231.65
369.99	231.68
370.37	231.68
370.75	231.80
371.13	231.77
371.51	231.72
371.89	231.71
372.27	231.69
372.65	231.67
373.03	231.64
373.41	231.59
373.78	231.52
374.16	231.40
374.54	231.30
374.92	231.25
375.30	231.20
375.68	231.13
376.06	231.09
376.44	231.02
376.82	230.99
377.19	230.96
377.57	230.90
377.95	230.79
378.33	230.73
378.71	230.52
379.09	230.48
379.47	230.46
379.84	230.40
380.22	230.32
380.60	230.25
380.98	230.20
381.36	230.16
381.73	230.10
382.11	230.09
382.49	230.06
382.87	230.00
383.25	229.96
383.62	230.12
384.00	230.05
384.38	230.02
384.76	230.01
385.13	230.03
385.51	229.99
385.89	229.95
386.27	229.92
386.64	229.92
387.02	229.87
387.40	229.82
387.78	229.80
388.15	229.79
388.53	229.76
388.91	229.74
389.29	229.71
389.66	229.71
390.04	229.67
390.42	229.69
390.79	229.68
391.17	229.67
391.55	229.46
391.92	229.46
392.30	229.48
392.68	229.44
393.05	229.43
393.43	229.44
393.81	229.46
394.18	229.45
394.56	229.45
394.94	229.51
395.31	229.51
395.69	229.59
396.06	229.63
396.44	229.69
396.82	229.71
397.19	229.85
397.57	229.87
397.95	229.94
398.32	229.94
398.70	230.02
399.07	230.11
399.45	230.18
399.82	230.25
400.20	230.31
400.58	230.40
400.95	230.42
401.33	230.55
401.70	230.79
402.08	230.94
402.45	231.06
402.83	231.22
403.20	231.40
403.58	231.55
403.95	231.76
404.33	231.98
404.71	232.19
405.08	232.49
405.46	232.74
405.83	233.02
406.21	233.32
406.58	233.66
406.96	233.99
407.33	234.36
407.70	234.78
408.08	235.35
408.45	235.86
408.83	236.42
409.20	236.91
409.58	237.37
409.95	238.00
410.33	238.68
410.70	239.34
411.08	240.09
411.45	240.88
411.82	241.70
412.20	242.63
412.57	243.73
412.95	244.62
413.32	245.76
413.69	246.95
414.07	248.20
414.44	249.57
414.82	250.97
415.19	252.63
415.56	254.29
415.94	256.02
416.31	257.97
416.68	259.92
417.06	262.19
417.43	264.32
417.81	266.78
418.18	269.27
418.55	272.00
418.93	274.85
419.30	277.83
419.67	280.98
420.04	284.24
420.42	287.63
420.79	291.54
421.16	295.52
421.54	299.52
421.91	303.74
422.28	308.10
422.66	312.81
423.03	317.26
423.40	321.96
423.77	327.00
424.15	332.13
424.52	337.45
424.89	343.23
425.26	348.95
425.64	354.26
426.01	360.22
426.38	366.36
426.75	372.61
427.13	379.02
427.50	385.74
427.87	392.68
428.24	399.68
428.61	406.40
428.99	413.63
429.36	421.62
429.73	429.25
430.10	436.86
430.47	444.64
430.85	452.75
431.22	461.34
431.59	470.10
431.96	478.69
432.33	488.24
432.70	497.32
433.08	508.11
433.45	518.28
433.82	528.27
434.19	539.44
434.56	550.42
434.93	561.07
435.30	571.64
435.68	583.66
436.05	595.41
436.42	607.15
436.79	617.88
437.16	629.45
437.53	641.89
437.90	654.36
438.27	666.47
438.64	679.52
439.01	691.43
439.38	702.48
439.75	713.10
440.13	725.20
440.50	736.72
440.87	745.82
441.24	755.79
441.61	766.81
441.98	774.87
442.35	784.45
442.72	794.24
443.09	803.58
443.46	809.74
443.83	814.31
444.20	818.08
444.57	823.62
444.94	826.96
445.31	830.28
445.68	833.09
446.05	835.18
446.42	834.82
446.79	834.23
447.16	833.66
447.53	833.24
447.90	829.65
448.27	826.11
448.64	820.68
449.01	817.06
449.37	809.43
449.74	802.57
450.11	793.65
450.48	783.84
450.85	773.96
451.22	765.34
451.59	756.97
451.96	749.45
452.33	738.54
452.70	728.77
453.07	716.97
453.43	705.26
453.80	693.91
454.17	682.98
454.54	672.82
454.91	661.34
455.28	650.45
455.65	640.12
456.02	629.31
456.38	620.62
456.75	609.34
457.12	600.25
457.49	591.08
457.86	582.50
458.23	574.95
458.59	566.60
458.96	558.08
459.33	550.54
459.70	542.90
460.07	536.99
460.43	530.07
460.80	523.57
461.17	517.86
461.54	511.75
461.91	506.08
462.27	500.31
462.64	495.60
463.01	490.19
463.38	484.82
463.74	479.96
464.11	475.65
464.48	471.76
464.85	467.54
465.21	464.30
465.58	460.68
465.95	456.57
466.32	453.26
466.68	450.01
467.05	446.77
467.42	443.60
467.78	440.24
468.15	437.13
468.52	434.86
468.88	431.86
469.25	429.11
469.62	426.92
469.98	424.51
470.35	422.34
470.72	420.41
471.08	418.41
471.45	416.71
471.82	414.83
472.18	412.89
472.55	411.65
472.92	410.08
473.28	408.84
473.65	407.53
474.02	406.34
474.38	405.32
474.75	404.70
475.11	403.81
475.48	403.37
475.85	402.95
476.21	402.72
476.58	402.54
476.94	402.75
477.31	402.80
477.67	402.94
478.04	403.27
478.41	403.70
478.77	404.31
479.14	404.68
479.50	405.45
479.87	406.45
480.23	407.46
480.60	408.42
480.96	409.40
481.33	410.83
481.69	412.26
482.06	413.69
482.42	415.01
482.79	416.65
483.15	418.56
483.52	420.69
483.88	422.76
484.25	424.99
484.61	427.28
484.98	429.71
485.34	432.50
485.71	435.38
486.07	438.48
486.44	441.54
486.80	444.95
487.17	448.44
487.53	452.23
487.90	456.22
488.26	460.56
488.62	465.13
488.99	469.73
489.35	474.58
489.72	479.79
490.08	485.25
490.44	490.80
490.81	496.53
491.17	502.43
491.54	508.70
491.90	515.13
492.26	521.98
492.63	529.16
492.99	536.59
493.36	544.34
493.72	552.44
494.08	560.74
494.45	569.47
494.81	578.57
495.17	587.89
495.54	597.70
495.90	607.94
496.26	618.43
496.63	629.13
496.99	640.23
497.35	651.78
497.72	663.71
498.08	676.08
498.44	688.72
498.80	702.14
499.17	715.89
499.53	730.09
499.89	744.67
500.26	759.34
500.62	774.33
500.98	790.00
501.34	805.90
501.71	822.50
502.07	839.37
502.43	856.73
502.79	874.16
503.16	892.06
503.52	910.13
503.88	928.66
504.24	947.64
504.60	966.90
504.97	986.58
505.33	1006.69
505.69	1027.84
506.05	1049.02
506.41	1069.96
506.78	1091.27
507.14	1113.40
507.50	1135.96
507.86	1159.06
508.22	1182.19
508.59	1205.12
508.95	1228.84
509.31	1253.05
509.67	1277.81
510.03	1302.38
510.39	1327.21
510.75	1352.23
511.12	1377.45
511.48	1402.52
511.84	1427.73
512.20	1453.25
512.56	1479.40
512.92	1505.28
513.28	1530.61
513.64	1556.44
514.00	1582.27
514.37	1608.36
514.73	1634.23
515.09	1659.50
515.45	1684.95
515.81	1710.38
516.17	1735.90
516.53	1760.73
516.89	1785.62
517.25	1810.58
517.61	1835.46
517.97	1860.51
518.33	1884.77
518.69	1908.88
519.05	1933.25
519.41	1957.48
519.77	1981.57
520.13	2005.15
520.49	2028.73
520.85	2052.48
521.21	2075.71
521.57	2099.50
521.93	2122.03
522.29	2144.82
522.65	2167.18
523.01	2189.50
523.37	2210.98
523.73	2232.82
524.09	2254.77
524.45	2276.43
524.81	2297.32
525.17	2317.77
525.53	2337.70
525.89	2358.19
526.25	2377.90
526.61	2396.40
526.97	2415.12
527.33	2433.48
527.68	2450.76
528.04	2467.37
528.40	2482.87
528.76	2498.89
529.12	2513.67
529.48	2529.14
529.84	2543.32
530.20	2558.30
530.56	2572.04
530.91	2586.03
531.27	2599.01
531.63	2610.91
531.99	2622.22
532.35	2632.49
532.71	2642.45
533.07	2652.74
533.42	2661.39
533.78	2670.88
534.14	2680.84
534.50	2689.27
534.86	2697.68
535.21	2704.13
535.57	2711.12
535.93	2718.45
536.29	2724.39
536.65	2730.20
537.00	2733.98
537.36	2738.24
537.72	2740.94
538.08	2743.42
538.44	2744.74
538.79	2746.62
539.15	2747.63
539.51	2748.23
539.87	2748.78
540.22	2747.83
540.58	2747.21
540.94	2746.40
541.29	2744.42
541.65	2740.89
542.01	2737.51
542.37	2733.04
542.72	2730.42
543.08	2726.05
543.44	2721.54
543.79	2715.56
544.15	2709.42
544.51	2704.03
544.87	2696.73
545.22	2688.94
545.58	2681.12
545.94	2673.90
546.29	2665.05
546.65	2656.16
547.01	2647.26
547.36	2638.05
547.72	2628.91
548.07	2618.22
548.43	2607.43
548.79	2595.60
549.14	2584.60
549.50	2573.41
549.86	2561.78
550.21	2548.70
550.57	2536.68
550.92	2522.48
551.28	2509.44
551.64	2496.84
551.99	2484.04
552.35	2471.19
552.70	2458.38
553.06	2445.89
553.41	2432.60
553.77	2418.72
554.13	2404.79
554.48	2390.33
554.84	2375.69
555.19	2361.59
555.55	2347.06
555.90	2332.36
556.26	2318.67
556.61	2303.93
556.97	2288.40
557.32	2273.34
557.68	2258.19
558.03	2242.72
558.39	2228.26
558.74	2213.74
559.10	2197.54
559.45	2181.96
559.81	2167.25
560.16	2152.24
560.52	2136.85
560.87	2122.11
561.23	2106.91
561.58	2092.08
561.94	2076.49
562.29	2061.05
562.64	2045.53
563.00	2030.30
563.35	2015.76
563.71	2000.74
564.06	1985.79
564.42	1971.28
564.77	1956.59
565.12	1942.44
565.48	1928.20
565.83	1914.18
566.19	1900.07
566.54	1886.23
566.89	1871.25
567.25	1855.90
567.60	1841.57
567.96	1826.69
568.31	1811.24
568.66	1796.52
569.02	1782.00
569.37	1767.79
569.72	1753.73
570.08	1739.76
570.43	1725.56
570.78	1710.67
571.14	1695.81
571.49	1681.32
571.84	1667.56
572.20	1652.72
572.55	1638.06
572.90	1622.99
573.26	1607.79
573.61	1592.57
573.96	1577.96
574.31	1563.83
574.67	1550.00
575.02	1535.27
575.37	1520.50
575.72	1505.88
576.08	1491.74
576.43	1477.41
576.78	1463.16
577.13	1449.01
577.49	1434.98
577.84	1420.97
578.19	1407.01
578.54	1393.21
578.90	1379.43
579.25	1365.04
579.60	1351.68
579.95	1338.45
580.30	1325.10
580.66	1311.86
581.01	1298.84
581.36	1285.59
581.71	1272.38
582.06	1259.07
582.42	1245.93
582.77	1233.26
583.12	1220.74
583.47	1208.14
583.82	1195.80
584.17	1183.32
584.53	1171.09
584.88	1158.93
585.23	1146.74
585.58	1134.90
585.93	1123.16
586.28	1111.91
586.63	1100.68
586.98	1089.32
587.34	1078.24
587.69	1067.09
588.04	1056.29
588.39	1045.57
588.74	1034.60
589.09	1024.03
589.44	1013.29
589.79	1003.09
590.14	992.94
590.49	982.98
590.84	973.15
591.19	963.38
591.54	953.68
591.89	943.53
592.25	933.71
592.60	923.82
592.95	914.20
593.30	904.49
593.65	894.73
594.00	885.28
594.35	876.58
594.70	867.31
595.05	858.80
595.40	849.98
595.75	840.95
596.10	832.57
596.45	824.04
596.80	815.76
597.15	807.51
597.50	799.34
597.85	791.39
598.19	783.45
598.54	775.48
598.89	767.71
599.24	760.35
599.59	753.05
599.94	746.24
600.29	739.21
600.64	732.33
600.99	725.38
601.34	718.60
601.69	711.32
602.04	704.62
602.39	697.97
602.74	691.48
603.08	685.23
603.43	678.95
603.78	672.77
604.13	666.73
604.48	660.67
604.83	654.78
605.18	648.96
605.53	643.23
605.87	637.47
606.22	631.94
606.57	626.33
606.92	620.61
607.27	615.00
607.62	609.65
607.96	604.43
608.31	599.49
608.66	594.50
609.01	589.70
609.36	585.02
609.70	580.20
610.05	575.44
610.40	570.77
610.75	566.13
611.10	561.71
611.44	557.21
611.79	552.87
612.14	548.55
612.49	544.17
612.83	539.97
613.18	535.94
613.53	531.99
613.88	528.08
614.22	524.37
614.57	520.53
614.92	516.79
615.27	513.11
615.61	509.49
615.96	505.91
616.31	502.30
616.65	498.76
617.00	495.35
617.35	492.00
617.70	488.72
618.04	485.53
618.39	482.38
618.74	479.37
619.08	476.28
619.43	473.24
619.78	470.30
620.12	467.43
620.47	464.72
620.82	461.94
621.16	459.25
621.51	456.70
621.85	454.19
622.20	451.71
622.55	449.26
622.89	446.81
623.24	444.50
623.59	442.25
623.93	440.07
624.28	437.94
624.62	436.04
624.97	434.09
625.32	432.02
625.66	429.90
626.01	427.84
626.35	425.93
626.70	423.99
627.04	422.22
627.39	420.34
627.73	418.52
628.08	416.81
628.43	415.12
628.77	413.37
629.12	411.73
629.46	410.08
629.81	408.57
630.15	406.92
630.50	405.32
630.84	403.80
631.19	402.35
631.53	400.95
631.88	399.32
632.22	397.79
632.57	396.56
632.91	395.34
633.26	394.18
633.60	392.95
633.95	391.79
634.29	390.50
634.64	389.33
634.98	388.04
635.32	386.87
635.67	385.78
636.01	384.73
636.36	383.70
636.70	382.78
637.05	381.67
637.39	380.74
637.73	379.81
638.08	378.91
638.42	377.96
638.77	376.94
639.11	375.91
639.45	374.91
639.80	373.87
640.14	372.90
640.49	371.89
640.83	370.91
641.17	369.95
641.52	369.03
641.86	368.14
642.20	367.39
642.55	366.46
642.89	365.57
643.23	364.67
643.58	363.87
643.92	362.91
644.26	362.05
644.61	361.27
644.95	360.45
645.29	359.56
645.64	358.67
645.98	357.84
646.32	357.12
646.66	356.36
647.01	355.56
647.35	354.81
647.69	354.05
648.04	353.34
648.38	352.60
648.72	351.92
649.06	351.23
649.41	350.47
649.75	349.77
650.09	349.12
650.43	348.44
650.78	347.70
651.12	347.04
651.46	346.39
651.80	345.73
652.14	345.06
652.49	344.46
652.83	343.82
653.17	343.18
653.51	342.55
653.85	341.99
654.20	341.39
654.54	340.73
654.88	340.10
655.22	339.47
655.56	338.79
655.90	338.11
656.25	337.43
656.59	336.77
656.93	336.19
657.27	335.67
657.61	335.06
657.95	334.52
658.29	333.96
658.64	333.42
658.98	332.80
659.32	332.18
659.66	331.60
660.00	331.06
660.34	330.54
660.68	329.96
661.02	329.33
661.36	328.75
661.70	328.20
662.05	327.66
662.39	327.17
662.73	326.74
663.07	326.31
663.41	325.82
663.75	325.28
664.09	324.74
664.43	324.13
664.77	323.62
665.11	323.00
665.45	322.45
665.79	321.89
666.13	321.34
666.47	320.82
666.81	320.25
667.15	319.64
667.49	319.13
667.83	318.68
668.17	318.18
668.51	317.70
668.85	317.26
669.19	316.88
669.53	316.34
669.87	315.83
670.21	315.33
670.55	314.86
670.89	314.50
671.23	314.04
671.57	313.61
671.91	313.21
672.25	312.83
672.58	312.47
672.92	311.99
673.26	311.60
673.60	311.20
673.94	310.79
674.28	310.43
674.62	310.02
674.96	309.54
675.30	309.13
675.64	308.69
675.97	308.20
676.31	307.68
676.65	307.20
676.99	306.81
677.33	306.32
677.67	305.86
678.01	305.31
678.34	304.85
678.68	304.38
679.02	303.88
679.36	303.41
679.70	302.90
680.04	302.48
680.37	302.03
680.71	301.57
681.05	301.15
681.39	300.67
681.73	300.19
682.06	299.71
682.40	299.26
682.74	298.87
683.08	298.53
683.42	298.08
683.75	297.67
684.09	297.13
684.43	296.66
684.77	296.19
685.10	295.78
685.44	295.37
685.78	294.94
686.12	294.51
686.45	294.08
686.79	293.61
687.13	293.18
687.46	292.71
687.80	292.26
688.14	291.76
688.48	291.31
688.81	290.86
689.15	290.50
689.49	290.04
689.82	289.56
690.16	289.00
690.50	288.55
690.83	288.10
691.17	287.64
691.51	287.20
691.84	286.83
692.18	286.38
692.52	285.88
692.85	285.44
693.19	285.05
693.52	284.60
693.86	284.16
694.20	283.70
694.53	283.27
694.87	282.78
695.21	282.32
695.54	281.89
695.88	281.44
696.21	280.92
696.55	280.48
696.88	280.01
697.22	279.59
697.56	279.16
697.89	278.67
698.23	278.24
698.56	277.78
698.90	277.35
699.23	276.90
699.57	276.49
699.90	276.05
700.24	275.56
700.58	275.15
700.91	274.80
701.25	274.55
701.58	274.21
701.92	273.90
702.25	273.56
702.59	273.16
702.92	272.77
703.26	272.39
703.59	272.00
703.93	271.76
704.26	271.39
704.60	270.99
704.93	270.62
705.26	270.21
705.60	269.86
705.93	269.45
706.27	269.12
706.60	268.78
706.94	268.47
707.27	268.07
707.61	267.69
707.94	267.28
708.27	266.74
708.61	266.29
708.94	265.89
709.28	265.51
709.61	265.13
709.94	264.79
710.28	264.47
710.61	264.15
710.95	263.67
711.28	263.46
711.61	263.15
711.95	262.86
712.28	262.54
712.61	262.20
712.95	261.97
713.28	261.72
713.61	261.37
713.95	261.02
714.28	260.73
714.61	260.40
714.95	260.10
715.28	259.80
715.61	259.51
715.95	259.23
716.28	258.91
716.61	258.65
716.95	258.32
717.28	258.01
717.61	257.71
717.94	257.42
718.28	257.01
718.61	256.72
718.94	256.41
719.27	256.15
719.61	255.91
719.94	255.60
720.27	255.25
720.60	254.99
720.94	254.74
721.27	254.50
721.60	254.28
721.93	254.02
722.27	253.82
722.60	253.59
722.93	253.33
723.26	253.12
723.59	252.86
723.93	252.67
724.26	252.45
724.59	252.23
724.92	252.03
725.25	251.85
725.59	251.64
725.92	251.44
726.25	251.22
726.58	251.00
726.91	250.76
727.24	250.56
727.57	250.33
727.91	250.07
728.24	249.88
728.57	249.65
728.90	249.48
729.23	249.23
729.56	249.11
729.89	248.93
730.22	248.72
730.55	248.53
730.89	248.32
731.22	248.12
731.55	247.92
731.88	247.73
732.21	247.51
732.54	247.32
732.87	247.14
733.20	246.98
733.53	246.80
733.86	246.64
734.19	246.45
734.52	246.31
734.85	246.27
735.18	246.08
735.51	245.99
735.84	245.83
736.17	245.71
736.50	245.46
736.83	245.49
737.16	245.33
737.49	245.18
737.82	245.01
738.15	244.88
738.48	244.73
738.81	244.57
739.14	244.40
739.47	244.24
739.80	244.08
740.13	243.95
740.46	243.77
740.79	243.61
741.12	243.46
741.45	243.28
741.78	243.05
742.11	242.95
742.44	242.75
742.77	242.63
743.10	242.47
743.43	242.32
743.75	242.00
744.08	242.14
744.41	241.99
744.74	241.84
745.07	241.67
745.40	241.58
745.73	241.52
746.06	241.40
746.39	241.29
746.71	241.15
747.04	241.01
747.37	240.89
747.70	240.80
748.03	240.69
748.36	240.61
748.68	240.49
749.01	240.33
749.34	240.22
749.67	240.10
750.00	240.00
750.33	240.02
750.65	239.92
750.98	239.55
751.31	239.46
751.64	239.38
751.97	239.36
752.29	239.23
752.62	239.04
752.95	238.91
753.28	238.78
753.60	238.67
753.93	238.61
754.26	238.52
754.59	238.35
754.91	238.23
755.24	238.11
755.57	238.08
755.90	237.97
756.22	237.85
756.55	237.72
756.88	237.58
757.20	237.36
757.53	237.22
757.86	237.13
758.19	237.04
758.51	236.93
758.84	236.76
759.17	236.65
759.49	236.58
759.82	236.58
760.15	236.51
760.47	236.44
760.80	236.30
761.13	236.23
761.45	236.15
761.78	236.08
762.11	236.00
762.43	235.83
762.76	235.77
763.08	235.71
763.41	235.64
763.74	235.58
764.06	235.51
764.39	235.44
764.71	235.36
765.04	235.26
765.37	235.18
765.69	235.10
766.02	235.03
766.34	234.95
766.67	234.81
767.00	234.77
767.32	234.79
767.65	234.83
767.97	234.76
768.30	234.70
768.62	234.63
768.95	234.55
769.27	234.48
769.60	234.43
769.92	234.34
770.25	234.26
770.57	234.17
770.90	234.11
771.22	234.05
771.55	234.01
771.87	233.97
772.20	233.91
772.52	234.02
772.85	234.18
773.17	234.14
773.50	234.08
773.82	234.00
774.15	233.87
774.47	233.71
774.80	233.64
775.12	233.60
775.45	233.55
775.77	233.51
776.09	233.48
776.42	233.43
776.74	233.46
777.07	233.40
777.39	233.37
777.72	233.32
778.04	233.29
778.36	233.22
778.69	233.18
779.01	233.15
779.33	232.95
779.66	232.70
779.98	232.64
780.31	232.62
780.63	232.65
780.95	232.64
781.28	232.62
781.60	232.58
781.92	232.54
782.25	232.51
782.57	232.46
782.89	232.41
783.22	232.37
783.54	232.30
783.86	232.29
784.19	232.25
784.51	232.27
784.83	232.21
785.16	232.19
785.48	232.18
785.80	232.14
786.12	232.12
786.45	232.10
786.77	232.09
787.09	232.04
787.42	231.96
787.74	231.92
788.06	231.88
788.38	231.86
788.71	231.80
789.03	231.78
789.35	231.78
789.67	231.72
789.99	231.71
790.32	231.65
790.64	231.64
790.96	231.78
791.28	231.70
791.61	231.67
791.93	231.65
792.25	231.61
792.57	231.71
792.89	231.67
793.21	231.65
793.54	231.60
793.86	231.57
794.18	231.55
794.50	231.51
794.82	231.50
795.14	231.50
795.47	231.52
795.79	231.51
796.11	231.45
796.43	231.44
796.75	231.40
797.07	231.41
797.39	231.36
797.71	231.20
798.04	231.19
798.36	231.18
798.68	231.16
799.00	231.15
799.32	231.05
799.64	231.05
799.96	231.02
800.28	231.04
800.60	231.01
800.92	231.00
801.24	230.98
801.56	230.97
801.89	230.93
802.21	230.92
802.53	230.87
802.85	230.90
803.17	230.97
803.49	230.93
803.81	230.89
804.13	230.87
804.45	230.83
804.77	230.82
805.09	230.80
805.41	230.77
805.73	230.72
806.05	230.66
806.37	230.64
806.69	230.62
807.01	230.59
807.33	230.60
807.65	230.52
807.97	230.58
808.28	230.54
808.60	230.52
808.92	230.47
809.24	230.57
809.56	230.52
809.88	230.43
810.20	230.43
810.52	230.46
810.84	230.43
811.16	230.40
811.48	230.37
811.80	230.42
812.12	230.40
812.43	230.43
812.75	230.44
813.07	230.40
813.39	230.40
813.71	230.37
814.03	230.33
814.35	230.34
814.67	230.26
814.98	230.24
815.30	230.23
815.62	230.19
815.94	230.05
816.26	230.06
816.58	230.03
816.89	230.03
817.21	229.96
817.53	229.96
817.85	229.96
818.17	229.95
818.48	229.87
818.80	229.89
819.12	229.85
819.44	229.79
819.76	229.76
820.07	229.75
820.39	229.73
820.71	229.73
821.03	229.72
821.34	229.69
821.66	229.70
821.98	229.70
822.30	229.69
822.61	229.80
822.93	229.76
823.25	229.73
823.57	229.71
823.88	229.73
824.20	229.72
824.52	229.74
824.83	229.72
825.15	229.68
825.47	229.66
825.79	229.65
826.10	229.64
826.42	229.63
826.74	229.63
827.05	229.62
827.37	229.62
827.69	229.60
828.00	229.60
828.32	229.58
828.64	229.55
828.95	229.63
829.27	229.56
829.58	229.56
829.90	229.58
830.22	229.57
830.53	229.53
830.85	229.51
831.17	229.45
831.48	229.44
831.80	229.46
832.11	229.43
832.43	229.41
832.75	229.41
833.06	229.52
833.38	229.46
833.69	229.46
834.01	229.45
834.32	229.45
834.64	229.44
834.96	229.43
835.27	229.43
835.59	229.37
835.90	229.35
836.22	229.34
836.53	229.31
836.85	229.30
837.16	229.47
837.48	229.47
837.79	229.53
838.11	229.54
838.42	229.53
838.74	229.56
839.05	229.55
839.37	229.54
839.68	229.43
840.00	229.42
840.31	229.43
840.63	229.41
840.94	229.39
841.26	229.36
841.57	229.36
841.88	229.37
842.20	229.34
842.51	229.31
842.83	229.30
843.14	229.46
843.46	229.45
843.77	229.35
844.08	229.33
844.40	229.27
844.71	229.24
845.03	229.23
845.34	229.21
845.65	229.21
845.97	229.21
846.28	229.22
846.60	229.24
846.91	229.20
847.22	229.19
847.54	229.23
847.85	229.24
848.16	229.22
848.48	229.18
848.79	229.24
849.10	229.25
849.42	229.26
849.73	229.10
850.04	229.08
850.36	229.02
850.67	229.05
850.98	229.06
851.30	229.07
851.61	229.05
851.92	229.04
852.23	229.09
852.55	229.10
852.86	229.10
853.17	229.11
853.49	229.15
853.80	229.19
854.11	229.20
854.42	229.22
854.74	229.20
855.05	229.21
855.36	229.12
855.67	229.12
855.99	229.11
856.30	229.31
856.61	229.31
856.92	229.31
857.23	229.31
857.55	229.29
857.86	229.27
858.17	229.32
858.48	229.28
858.79	229.25
859.11	229.26
859.42	229.24
859.73	229.21
860.04	229.20
860.35	229.15
860.66	229.09
860.98	229.08
861.29	229.10
861.60	229.09
861.91	229.14
862.22	229.12
862.53	229.09
862.84	228.89
863.16	228.93
863.47	228.90
863.78	228.88
864.09	228.88
864.40	228.89
864.71	228.88
865.02	228.90
865.33	228.87
865.64	228.83
865.95	228.83
866.27	228.95
866.58	228.92
866.89	228.93
867.20	228.92
867.51	228.90
867.82	228.88
868.13	228.93
868.44	228.88
868.75	228.92
869.06	228.94
869.37	228.96
869.68	228.91
869.99	228.93
870.30	228.94
870.61	228.96
870.92	228.94
871.23	228.92
871.54	228.94
871.85	228.99
872.16	229.00
872.47	228.98
872.78	228.87
873.09	228.88
873.40	228.87
873.71	228.89
874.02	228.90
874.33	228.88
874.64	228.85
874.95	228.88
875.26	228.84
875.56	228.82
875.87	228.80
876.18	228.79
876.49	228.97
876.80	228.96
877.11	228.93
877.42	228.93
877.73	228.93
878.04	228.90
878.35	228.89
878.66	228.90
878.96	228.90
879.27	228.89
879.58	228.87
879.89	228.86
880.20	228.90
880.51	228.89
880.82	228.89
881.12	228.90
881.43	228.86
881.74	228.85
882.05	228.84
882.36	228.86
882.67	228.89
882.97	228.70
883.28	228.68
883.59	228.68
883.90	228.70
884.21	228.72
884.51	228.73
884.82	228.71
885.13	228.70
885.44	228.71
885.74	228.73
886.05	228.73
886.36	228.73
886.67	228.67
886.98	228.76
887.28	228.78
887.59	228.77
887.90	228.78
888.20	228.77
888.51	228.80
888.82	228.76
889.13	228.76
889.43	228.92
889.74	228.92
890.05	228.91
890.35	228.89
890.66	228.86
890.97	228.84
891.28	228.83
891.58	228.84
891.89	228.83
892.20	228.80
892.50	228.78
892.81	228.77
893.12	228.77
893.42	228.69
893.73	228.69
894.04	228.70
894.34	228.71
894.65	228.71
894.95	228.69
895.26	228.69
895.57	228.77
895.87	228.58
896.18	228.62
896.48	228.63
896.79	228.63
897.10	228.65
897.40	228.66
897.71	228.67
898.01	228.65
898.32	228.68
898.63	228.68
898.93	228.70
899.24	228.72
899.54	228.71
899.85	228.70
900.15	228.69
900.46	228.68
900.76	228.69
901.07	228.68
901.38	228.66
901.68	228.69
901.99	228.59
902.29	228.61
902.60	228.58
902.90	228.56
903.21	228.55
903.51	228.52
903.82	228.56
904.12	228.55
904.43	228.55
904.73	228.55
905.03	228.55
905.34	228.72
905.64	228.70
905.95	228.70
906.25	228.70
906.56	228.70
906.86	228.70
907.17	228.69
907.47	228.72
907.77	228.71
908.08	228.67
908.38	228.69
908.69	228.70
908.99	228.73
909.30	228.75
909.60	228.74
909.90	228.74
910.21	228.69
910.51	228.67
910.81	228.66
911.12	228.67
911.42	228.66
911.73	228.47
912.03	228.48
912.33	228.51
912.64	228.49
912.94	228.48
913.24	228.46
913.55	228.44
913.85	228.42
914.15	228.45
914.46	228.47
914.76	228.45
915.06	228.45
915.37	228.42
915.67	228.41
915.97	228.42
916.27	228.40
916.58	228.41
916.88	228.41
917.18	228.40
917.49	228.52
917.79	228.53
918.09	228.57
918.39	228.62
918.70	228.61
919.00	228.62
919.30	228.69
919.60	228.68
919.91	228.66
920.21	228.68
920.51	228.64
920.81	228.62
921.12	228.66
921.42	228.65
921.72	228.66
922.02	228.67
922.32	228.70
922.63	228.71
922.93	228.81
923.23	228.83
923.53	228.81
923.83	228.68
924.13	228.69
924.44	228.68
924.74	228.69
925.04	228.72
925.34	228.72
925.64	228.65
925.94	228.66
926.24	228.76
926.55	228.73
926.85	228.75
927.15	228.75
927.45	228.75
927.75	228.75
928.05	228.75
928.35	228.74
928.65	228.77
928.95	228.79
929.26	228.70
929.56	228.73
929.86	228.76
930.16	228.76
930.46	228.74
930.76	228.75
931.06	228.67
931.36	228.62
931.66	228.64
931.96	228.66
932.26	228.67
932.56	228.60
932.86	228.61
933.16	228.61
933.46	228.59
933.76	228.56
934.06	228.59
934.36	228.65
934.66	228.65
934.96	228.60
935.26	228.61
935.56	228.65
935.86	228.60
936.16	228.57
936.46	228.56
936.76	228.55
937.06	228.52
937.36	228.55
937.66	228.55
937.96	228.54
938.26	228.50
938.56	228.49
938.86	228.49
939.16	228.55
939.46	228.56
939.76	228.58
940.06	228.58
940.35	228.54
940.65	228.45
940.95	228.45
941.25	228.41
941.55	228.38
941.85	228.36
942.15	228.39
942.45	228.44
942.75	228.43
943.04	228.43
943.34	228.47
943.64	228.45
943.94	228.43
944.24	228.43
944.54	228.45
944.84	228.46
945.13	228.43
945.43	228.39
945.73	228.38
946.03	228.37
946.33	228.35
946.62	228.33
946.92	228.34
947.22	228.34
947.52	228.37
947.82	228.38
948.11	228.35
948.41	228.32
948.71	228.27
949.01	228.28
949.31	228.27
949.60	228.24
949.90	228.27
950.20	228.25
950.50	228.24
950.79	228.22
951.09	228.24
951.39	228.24
951.69	228.22
951.98	228.25
952.28	228.25
952.58	228.25
952.87	228.26
953.17	228.28
953.47	228.26
953.76	228.25
954.06	228.23
954.36	228.20
954.66	228.20
954.95	228.24
955.25	228.25
955.55	228.26
955.84	228.24
956.14	228.24
956.44	228.25
956.73	228.22
957.03	228.23
957.32	228.23
957.62	228.21
957.92	228.25
958.21	228.22
958.51	228.42
958.81	228.43
959.10	228.45
959.40	228.49
959.69	228.50
959.99	228.53
960.29	228.54
960.58	228.55
960.88	228.62
961.17	228.60
961.47	228.61
961.76	228.60
962.06	228.63
962.36	228.60
962.65	228.61
962.95	228.63
963.24	228.62
963.54	228.62
963.83	228.64
964.13	228.62
964.42	228.61
964.72	228.47
965.01	228.48
965.31	228.47
965.60	228.43
965.90	228.53
966.19	228.49
966.49	228.51
966.78	228.50
967.08	228.50
967.37	228.49
967.67	228.46
967.96	228.50
968.26	228.50
968.55	228.54
968.85	228.54
969.14	228.54
969.43	228.54
969.73	228.53
970.02	228.53
970.32	228.52
970.61	228.51
970.91	228.46
971.20	228.43
971.49	228.41
971.79	228.44
972.08	228.32
972.38	228.33
972.67	228.32
972.96	228.34
973.26	228.30
973.55	228.35
973.85	228.35
974.14	228.33
974.43	228.35
974.73	228.30
975.02	228.28
975.31	228.28
975.61	228.29
975.90	228.27
976.19	228.26
976.49	228.29
976.78	228.29
977.07	228.29
977.37	228.31
977.66	228.34
977.95	228.32
978.24	228.33
978.54	228.36
978.83	228.36
979.12	228.34
979.42	228.36
979.71	228.32
980.00	228.32
980.29	228.33
980.59	228.29
980.88	228.35
981.17	228.36
981.46	228.35
981.76	228.34
982.05	228.40
982.34	228.42
982.63	228.41
982.93	228.42
983.22	228.46
983.51	228.47
983.80	228.48
984.09	228.50
984.39	228.49
984.68	228.47
984.97	228.46
985.26	228.45
985.55	228.46
985.85	228.42
986.14	228.44
986.43	228.45
986.72	228.44
987.01	228.38
987.30	228.38
987.59	228.37
987.89	228.39
988.18	228.33
988.47	228.31
988.76	228.30
989.05	228.28
989.34	228.26
989.63	228.29
989.92	228.27
990.22	228.24
990.51	228.23
990.80	228.22
991.09	228.23
991.38	228.26
991.67	228.23
991.96	228.22
992.25	228.22
992.54	228.18
992.83	228.19
993.12	228.18
993.41	228.20
993.70	228.27
993.99	228.29
994.28	228.31
994.58	228.34
994.87	228.32
995.16	228.32
995.45	228.30
995.74	228.25
996.03	228.28
996.32	228.30
996.61	228.34
996.90	228.34
997.19	228.34
997.48	228.35
997.77	228.33
998.06	228.34
998.34	228.32
998.63	228.33
998.92	228.34
999.21	228.37
999.50	228.38
999.79	228.32
1000.08	228.32
1000.37	228.31
1000.66	228.27
1000.95	228.32
1001.24	228.32
1001.53	228.35
1001.82	228.33
1002.11	228.29
1002.40	228.30
1002.68	228.34
1002.97	228.46
1003.26	228.43
1003.55	228.39
1003.84	228.41
1004.13	228.47
1004.42	228.47
1004.71	228.48
1004.99	228.47
1005.28	228.51
1005.57	228.49
1005.86	228.47
1006.15	228.46
1006.44	228.44
1006.72	228.47
1007.01	228.43
1007.30	228.44
1007.59	228.41
1007.88	228.42
1008.17	228.43
1008.45	228.40
1008.74	228.33
1009.03	228.25
1009.32	228.25
1009.60	228.25
1009.89	228.24
1010.18	228.17
1010.47	228.16
1010.76	228.15
1011.04	228.14
1011.33	228.13
1011.62	228.15
1011.91	228.17
1012.19	228.17
1012.48	228.18
1012.77	228.18
1013.05	228.25
1013.34	228.24
1013.63	228.23
1013.92	228.24
1014.20	228.22
1014.49	228.24
1014.78	228.25
1015.06	228.19
1015.35	228.19
1015.64	228.22
1015.92	228.25
1016.21	228.27
1016.50	228.27
1016.78	228.31
1017.07	228.32
1017.36	228.29
1017.64	228.27
1017.93	228.27
1018.22	228.25
1018.50	228.25
1018.79	228.23
1019.08	228.18
1019.36	228.19
1019.65	228.18
1019.93	228.24
1020.22	228.27
1020.51	228.35
1020.79	228.33
1021.08	227.89
1021.36	227.93
1021.65	228.25
1021.94	228.35
1022.22	228.32
1022.51	227.93
1022.79	229.17
1023.08	228.52
1023.36	230.36
1023.65	227.74
>>>>>End Processed Spectral Data<<<<<
