SpectraSuite Data File
++++++++++++++++++++++++++++++++++++
Date: Tue Oct 06 12:35:53 EDT 2015
User: lab3
Dark Spectrum Present: No
Reference Spectrum Present: No
Number of Sampled Component Spectra: 1
Spectrometers: USB2E7196
Integration Time (usec): 66000 (USB2E7196)
Spectra Averaged: 1000 (USB2E7196)
Boxcar Smoothing: 10 (USB2E7196)
Correct for Electrical Dark: No (USB2E7196)
Strobe/Lamp Enabled: No (USB2E7196)
Correct for Detector Non-linearity: No (USB2E7196)
Correct for Stray Light: No (USB2E7196)
Number of Pixels in Processed Spectrum: 2048
>>>>>Begin Processed Spectral Data<<<<<
339.09	0.00
339.48	217.00
339.86	218.55
340.24	219.88
340.63	221.19
341.01	225.28
341.39	223.76
341.78	225.56
342.16	226.84
342.54	227.07
342.93	215.38
343.31	226.25
343.69	226.79
344.07	227.25
344.46	227.70
344.84	228.11
345.22	228.30
345.60	228.59
345.99	228.79
346.37	228.92
346.75	229.03
347.13	229.12
347.52	229.20
347.90	229.32
348.28	229.36
348.66	229.45
349.05	229.43
349.43	229.50
349.81	229.58
350.19	229.63
350.57	229.71
350.96	229.81
351.34	229.92
351.72	230.02
352.10	230.12
352.48	230.19
352.87	230.23
353.25	230.29
353.63	230.35
354.01	230.40
354.39	230.49
354.77	230.57
355.15	230.70
355.54	230.74
355.92	230.74
356.30	230.82
356.68	230.99
357.06	231.07
357.44	231.10
357.82	231.16
358.20	231.37
358.58	231.42
358.97	231.49
359.35	231.57
359.73	231.66
360.11	231.72
360.49	231.77
360.87	231.82
361.25	231.89
361.63	232.00
362.01	232.06
362.39	232.07
362.77	232.12
363.15	232.14
363.53	232.19
363.91	232.24
364.29	232.27
364.67	232.13
365.05	232.16
365.43	232.19
365.81	232.24
366.19	232.20
366.57	232.27
366.95	232.26
367.33	232.23
367.71	232.23
368.09	232.26
368.47	232.26
368.85	232.25
369.23	232.26
369.61	232.18
369.99	232.22
370.37	232.23
370.75	232.34
371.13	232.29
371.51	232.24
371.89	232.22
372.27	232.20
372.65	232.19
373.03	232.16
373.41	232.11
373.78	232.06
374.16	231.94
374.54	231.84
374.92	231.80
375.30	231.76
375.68	231.67
376.06	231.63
376.44	231.56
376.82	231.52
377.19	231.49
377.57	231.44
377.95	231.33
378.33	231.28
378.71	231.07
379.09	231.03
379.47	231.01
379.84	230.94
380.22	230.88
380.60	230.80
380.98	230.75
381.36	230.71
381.73	230.63
382.11	230.62
382.49	230.58
382.87	230.52
383.25	230.48
383.62	230.65
384.00	230.57
384.38	230.55
384.76	230.54
385.13	230.55
385.51	230.51
385.89	230.46
386.27	230.43
386.64	230.43
387.02	230.37
387.40	230.32
387.78	230.31
388.15	230.29
388.53	230.26
388.91	230.23
389.29	230.19
389.66	230.20
390.04	230.16
390.42	230.18
390.79	230.17
391.17	230.16
391.55	229.95
391.92	229.95
392.30	229.96
392.68	229.92
393.05	229.90
393.43	229.92
393.81	229.95
394.18	229.93
394.56	229.93
394.94	229.99
395.31	230.00
395.69	230.06
396.06	230.10
396.44	230.15
396.82	230.17
397.19	230.30
397.57	230.33
397.95	230.39
398.32	230.38
398.70	230.45
399.07	230.54
399.45	230.60
399.82	230.67
400.20	230.73
400.58	230.82
400.95	230.84
401.33	230.95
401.70	231.17
402.08	231.31
402.45	231.44
402.83	231.61
403.20	231.78
403.58	231.91
403.95	232.10
404.33	232.32
404.71	232.52
405.08	232.81
405.46	233.05
405.83	233.31
406.21	233.60
406.58	233.91
406.96	234.23
407.33	234.59
407.70	234.99
408.08	235.55
408.45	236.04
408.83	236.56
409.20	237.05
409.58	237.49
409.95	238.10
410.33	238.74
410.70	239.36
411.08	240.09
411.45	240.85
411.82	241.65
412.20	242.54
412.57	243.61
412.95	244.47
413.32	245.57
413.69	246.72
414.07	247.92
414.44	249.25
414.82	250.60
415.19	252.18
415.56	253.80
415.94	255.47
416.31	257.36
416.68	259.26
417.06	261.44
417.43	263.49
417.81	265.84
418.18	268.25
418.55	270.88
418.93	273.62
419.30	276.49
419.67	279.52
420.04	282.66
420.42	285.94
420.79	289.70
421.16	293.52
421.54	297.39
421.91	301.43
422.28	305.62
422.66	310.14
423.03	314.44
423.40	318.95
423.77	323.78
424.15	328.72
424.52	333.83
424.89	339.38
425.26	344.88
425.64	349.99
426.01	355.71
426.38	361.58
426.75	367.60
427.13	373.75
427.50	380.22
427.87	386.88
428.24	393.61
428.61	400.07
428.99	407.02
429.36	414.68
429.73	422.03
430.10	429.33
430.47	436.81
430.85	444.54
431.22	452.80
431.59	461.23
431.96	469.47
432.33	478.66
432.70	487.40
433.08	497.79
433.45	507.57
433.82	517.18
434.19	527.92
434.56	538.47
434.93	548.71
435.30	558.87
435.68	570.41
436.05	581.69
436.42	593.00
436.79	603.30
437.16	614.41
437.53	626.37
437.90	638.37
438.27	650.06
438.64	662.61
439.01	674.05
439.38	684.67
439.75	694.83
440.13	706.41
440.50	717.40
440.87	726.12
441.24	735.76
441.61	746.29
441.98	754.02
442.35	763.17
442.72	772.57
443.09	781.55
443.46	787.47
443.83	791.82
444.20	795.36
444.57	800.67
444.94	803.86
445.31	806.98
445.68	809.64
446.05	811.59
446.42	811.26
446.79	810.67
447.16	810.12
447.53	809.77
447.90	806.29
448.27	802.88
448.64	797.63
449.01	794.05
449.37	786.73
449.74	780.12
450.11	771.58
450.48	762.10
450.85	752.56
451.22	744.22
451.59	736.18
451.96	728.99
452.33	718.51
452.70	709.11
453.07	697.77
453.43	686.49
453.80	675.50
454.17	664.99
454.54	655.18
454.91	644.12
455.28	633.60
455.65	623.69
456.02	613.32
456.38	604.94
456.75	594.12
457.12	585.39
457.49	576.58
457.86	568.33
458.23	561.08
458.59	553.05
458.96	544.86
459.33	537.62
459.70	530.25
460.07	524.56
460.43	517.88
460.80	511.63
461.17	506.16
461.54	500.35
461.91	494.88
462.27	489.32
462.64	484.77
463.01	479.59
463.38	474.43
463.74	469.75
464.11	465.61
464.48	461.86
464.85	457.80
465.21	454.68
465.58	451.22
465.95	447.27
466.32	444.12
466.68	441.04
467.05	437.93
467.42	434.91
467.78	431.69
468.15	428.72
468.52	426.56
468.88	423.72
469.25	421.10
469.62	419.01
469.98	416.73
470.35	414.69
470.72	412.86
471.08	410.97
471.45	409.37
471.82	407.59
472.18	405.77
472.55	404.58
472.92	403.10
473.28	401.93
473.65	400.70
474.02	399.56
474.38	398.58
474.75	397.99
475.11	397.15
475.48	396.76
475.85	396.36
476.21	396.13
476.58	395.97
476.94	396.16
477.31	396.22
477.67	396.38
478.04	396.69
478.41	397.10
478.77	397.70
479.14	398.06
479.50	398.82
479.87	399.79
480.23	400.76
480.60	401.67
480.96	402.63
481.33	404.02
481.69	405.38
482.06	406.76
482.42	408.05
482.79	409.62
483.15	411.47
483.52	413.57
483.88	415.58
484.25	417.72
484.61	419.99
484.98	422.37
485.34	425.05
485.71	427.84
486.07	430.86
486.44	433.79
486.80	437.11
487.17	440.50
487.53	444.21
487.90	448.08
488.26	452.30
488.62	456.73
488.99	461.17
489.35	465.86
489.72	470.93
490.08	476.24
490.44	481.64
490.81	487.21
491.17	492.91
491.54	498.99
491.90	505.23
492.26	511.87
492.63	518.84
492.99	526.07
493.36	533.56
493.72	541.43
494.08	549.48
494.45	557.91
494.81	566.76
495.17	575.80
495.54	585.34
495.90	595.28
496.26	605.47
496.63	615.90
496.99	626.70
497.35	637.92
497.72	649.50
498.08	661.53
498.44	673.82
498.80	686.89
499.17	700.33
499.53	714.15
499.89	728.32
500.26	742.63
500.62	757.20
500.98	772.48
501.34	787.92
501.71	804.11
502.07	820.58
502.43	837.46
502.79	854.45
503.16	871.96
503.52	889.71
503.88	907.92
504.24	926.56
504.60	945.49
504.97	964.85
505.33	984.61
505.69	1005.33
506.05	1026.13
506.41	1046.85
506.78	1067.85
507.14	1089.68
507.50	1111.99
507.86	1134.70
508.22	1157.51
508.59	1180.16
508.95	1203.65
509.31	1227.59
509.67	1252.18
510.03	1276.58
510.39	1301.40
510.75	1326.20
511.12	1351.09
511.48	1375.99
511.84	1401.03
512.20	1426.53
512.56	1452.33
512.92	1478.05
513.28	1503.41
513.64	1529.12
514.00	1554.91
514.37	1580.84
514.73	1606.52
515.09	1631.76
515.45	1657.18
515.81	1682.68
516.17	1708.31
516.53	1733.24
516.89	1758.11
517.25	1783.06
517.61	1807.93
517.97	1832.90
518.33	1857.46
518.69	1881.94
519.05	1906.60
519.41	1931.18
519.77	1955.65
520.13	1979.92
520.49	2003.92
520.85	2028.04
521.21	2051.97
521.57	2075.96
521.93	2098.99
522.29	2122.40
522.65	2145.32
523.01	2168.11
523.37	2190.08
523.73	2212.39
524.09	2234.89
524.45	2257.38
524.81	2278.88
525.17	2300.25
525.53	2321.02
525.89	2342.09
526.25	2362.66
526.61	2382.10
526.97	2401.73
527.33	2420.72
527.68	2438.85
528.04	2456.40
528.40	2472.90
528.76	2489.87
529.12	2505.80
529.48	2522.21
529.84	2537.35
530.20	2553.43
530.56	2568.38
530.91	2583.33
531.27	2597.30
531.63	2610.32
531.99	2623.03
532.35	2634.30
532.71	2645.53
533.07	2657.01
533.42	2666.97
533.78	2677.75
534.14	2688.62
534.50	2698.07
534.86	2707.68
535.21	2715.47
535.57	2723.52
535.93	2731.89
536.29	2739.09
536.65	2746.33
537.00	2751.49
537.36	2757.16
537.72	2761.15
538.08	2764.87
538.44	2767.72
538.79	2770.91
539.15	2773.42
539.51	2775.30
539.87	2777.77
540.22	2778.25
540.58	2779.27
540.94	2779.84
541.29	2779.01
541.65	2776.64
542.01	2774.36
542.37	2771.14
542.72	2769.54
543.08	2766.51
543.44	2763.24
543.79	2758.27
544.15	2753.32
544.51	2748.95
544.87	2742.64
545.22	2735.89
545.58	2729.46
545.94	2723.75
546.29	2716.13
546.65	2707.95
547.01	2699.79
547.36	2691.27
547.72	2682.72
548.07	2672.90
548.43	2662.92
548.79	2651.82
549.14	2641.87
549.50	2631.65
549.86	2620.89
550.21	2608.36
550.57	2597.03
550.92	2584.10
551.28	2571.91
551.64	2559.90
551.99	2547.96
552.35	2536.04
552.70	2523.89
553.06	2512.00
553.41	2498.84
553.77	2485.56
554.13	2472.53
554.48	2458.66
554.84	2444.39
555.19	2430.98
555.55	2416.79
555.90	2402.74
556.26	2389.71
556.61	2375.86
556.97	2361.15
557.32	2346.75
557.68	2332.41
558.03	2317.67
558.39	2303.64
558.74	2289.72
559.10	2273.94
559.45	2258.76
559.81	2244.24
560.16	2229.39
560.52	2214.25
560.87	2199.97
561.23	2185.11
561.58	2170.48
561.94	2155.22
562.29	2140.18
562.64	2124.94
563.00	2109.89
563.35	2095.46
563.71	2080.69
564.06	2065.71
564.42	2051.25
564.77	2036.76
565.12	2022.80
565.48	2008.57
565.83	1994.07
566.19	1979.70
566.54	1965.77
566.89	1950.62
567.25	1935.07
567.60	1920.74
567.96	1905.70
568.31	1890.17
568.66	1875.56
569.02	1860.99
569.37	1846.66
569.72	1832.47
570.08	1818.28
570.43	1803.97
570.78	1788.88
571.14	1773.82
571.49	1759.06
571.84	1745.05
572.20	1729.83
572.55	1714.82
572.90	1699.32
573.26	1683.89
573.61	1668.29
573.96	1653.26
574.31	1638.82
574.67	1624.84
575.02	1609.97
575.37	1594.88
575.72	1579.71
576.08	1564.91
576.43	1550.17
576.78	1535.48
577.13	1520.92
577.49	1506.26
577.84	1491.63
578.19	1477.22
578.54	1462.83
578.90	1448.32
579.25	1433.36
579.60	1419.49
579.95	1405.58
580.30	1391.85
580.66	1378.21
581.01	1364.69
581.36	1351.01
581.71	1337.33
582.06	1323.71
582.42	1310.25
582.77	1297.24
583.12	1284.38
583.47	1271.42
583.82	1258.58
584.17	1245.66
584.53	1232.89
584.88	1220.49
585.23	1207.82
585.58	1195.45
585.93	1183.11
586.28	1171.38
586.63	1159.55
586.98	1147.67
587.34	1136.08
587.69	1124.35
588.04	1112.92
588.39	1101.63
588.74	1090.31
589.09	1079.32
589.44	1067.73
589.79	1056.75
590.14	1045.88
590.49	1035.21
590.84	1024.74
591.19	1014.33
591.54	1003.98
591.89	993.34
592.25	982.83
592.60	972.36
592.95	962.08
593.30	951.88
593.65	941.62
594.00	931.57
594.35	922.20
594.70	912.36
595.05	903.18
595.40	893.80
595.75	884.26
596.10	875.20
596.45	866.02
596.80	857.30
597.15	848.57
597.50	839.82
597.85	831.40
598.19	822.98
598.54	814.56
598.89	806.27
599.24	798.44
599.59	790.68
599.94	783.34
600.29	775.82
600.64	768.37
600.99	760.90
601.34	753.67
601.69	745.84
602.04	738.65
602.39	731.53
602.74	724.63
603.08	717.86
603.43	711.10
603.78	704.43
604.13	697.90
604.48	691.36
604.83	685.04
605.18	678.70
605.53	672.45
605.87	666.10
606.22	660.07
606.57	653.94
606.92	647.72
607.27	641.66
607.62	635.94
607.96	630.30
608.31	624.96
608.66	619.43
609.01	614.22
609.36	609.19
609.70	604.10
610.05	598.90
610.40	593.87
610.75	588.79
611.10	584.03
611.44	579.20
611.79	574.46
612.14	569.73
612.49	564.97
612.83	560.46
613.18	556.16
613.53	551.87
613.88	547.58
614.22	543.51
614.57	539.37
614.92	535.23
615.27	531.24
615.61	527.27
615.96	523.42
616.31	519.54
616.65	515.66
617.00	511.87
617.35	508.23
617.70	504.65
618.04	501.22
618.39	497.71
618.74	494.35
619.08	490.92
619.43	487.57
619.78	484.37
620.12	481.19
620.47	478.15
620.82	475.10
621.16	472.13
621.51	469.31
621.85	466.53
622.20	463.80
622.55	461.05
622.89	458.33
623.24	455.79
623.59	453.24
623.93	450.77
624.28	448.38
624.62	446.19
624.97	443.97
625.32	441.60
625.66	439.25
626.01	436.97
626.35	434.89
626.70	432.71
627.04	430.73
627.39	428.60
627.73	426.52
628.08	424.58
628.43	422.71
628.77	420.76
629.12	418.91
629.46	417.05
629.81	415.34
630.15	413.55
630.50	411.75
630.84	410.05
631.19	408.41
631.53	406.81
631.88	405.03
632.22	403.35
632.57	402.00
632.91	400.62
633.26	399.27
633.60	397.86
633.95	396.56
634.29	395.12
634.64	393.78
634.98	392.30
635.32	390.98
635.67	389.74
636.01	388.49
636.36	387.27
636.70	386.19
637.05	384.95
637.39	383.86
637.73	382.76
638.08	381.69
638.42	380.62
638.77	379.48
639.11	378.30
639.45	377.18
639.80	376.03
640.14	374.89
640.49	373.74
640.83	372.64
641.17	371.54
641.52	370.48
641.86	369.50
642.20	368.68
642.55	367.66
642.89	366.67
643.23	365.67
643.58	364.81
643.92	363.79
644.26	362.85
644.61	361.96
644.95	361.05
645.29	360.14
645.64	359.19
645.98	358.31
646.32	357.50
646.66	356.64
647.01	355.75
647.35	354.97
647.69	354.15
648.04	353.39
648.38	352.59
648.72	351.85
649.06	351.08
649.41	350.26
649.75	349.51
650.09	348.77
650.43	348.07
650.78	347.31
651.12	346.57
651.46	345.87
651.80	345.16
652.14	344.47
652.49	343.78
652.83	343.07
653.17	342.40
653.51	341.75
653.85	341.16
654.20	340.54
654.54	339.84
654.88	339.18
655.22	338.54
655.56	337.84
655.90	337.16
656.25	336.52
656.59	335.88
656.93	335.30
657.27	334.75
657.61	334.10
657.95	333.52
658.29	332.94
658.64	332.43
658.98	331.83
659.32	331.23
659.66	330.67
660.00	330.12
660.34	329.55
660.68	328.97
661.02	328.32
661.36	327.74
661.70	327.20
662.05	326.68
662.39	326.17
662.73	325.76
663.07	325.36
663.41	324.87
663.75	324.34
664.09	323.79
664.43	323.20
664.77	322.72
665.11	322.12
665.45	321.58
665.79	321.02
666.13	320.46
666.47	319.91
666.81	319.34
667.15	318.75
667.49	318.27
667.83	317.85
668.17	317.40
668.51	316.93
668.85	316.51
669.19	316.12
669.53	315.59
669.87	315.09
670.21	314.59
670.55	314.11
670.89	313.76
671.23	313.33
671.57	312.91
671.91	312.51
672.25	312.16
672.58	311.79
672.92	311.34
673.26	310.94
673.60	310.55
673.94	310.17
674.28	309.83
674.62	309.44
674.96	308.97
675.30	308.56
675.64	308.14
675.97	307.71
676.31	307.22
676.65	306.78
676.99	306.42
677.33	305.95
677.67	305.52
678.01	304.97
678.34	304.51
678.68	304.11
679.02	303.62
679.36	303.18
679.70	302.71
680.04	302.31
680.37	301.89
680.71	301.46
681.05	301.05
681.39	300.62
681.73	300.15
682.06	299.69
682.40	299.27
682.74	298.89
683.08	298.53
683.42	298.10
683.75	297.70
684.09	297.19
684.43	296.75
684.77	296.31
685.10	295.93
685.44	295.56
685.78	295.13
686.12	294.74
686.45	294.30
686.79	293.84
687.13	293.41
687.46	292.96
687.80	292.55
688.14	292.07
688.48	291.62
688.81	291.20
689.15	290.85
689.49	290.40
689.82	289.94
690.16	289.41
690.50	288.99
690.83	288.54
691.17	288.08
691.51	287.66
691.84	287.29
692.18	286.84
692.52	286.35
692.85	285.91
693.19	285.55
693.52	285.16
693.86	284.76
694.20	284.33
694.53	283.91
694.87	283.46
695.21	283.04
695.54	282.63
695.88	282.17
696.21	281.67
696.55	281.25
696.88	280.82
697.22	280.41
697.56	280.00
697.89	279.54
698.23	279.13
698.56	278.68
698.90	278.25
699.23	277.81
699.57	277.40
699.90	276.97
700.24	276.48
700.58	276.06
700.91	275.70
701.25	275.45
701.58	275.14
701.92	274.81
702.25	274.46
702.59	274.06
702.92	273.68
703.26	273.30
703.59	272.92
703.93	272.68
704.26	272.31
704.60	271.91
704.93	271.54
705.26	271.16
705.60	270.82
705.93	270.39
706.27	270.08
706.60	269.77
706.94	269.46
707.27	269.07
707.61	268.70
707.94	268.30
708.27	267.78
708.61	267.34
708.94	266.94
709.28	266.56
709.61	266.19
709.94	265.88
710.28	265.58
710.61	265.28
710.95	264.80
711.28	264.60
711.61	264.28
711.95	264.00
712.28	263.67
712.61	263.31
712.95	263.10
713.28	262.84
713.61	262.49
713.95	262.12
714.28	261.85
714.61	261.51
714.95	261.20
715.28	260.90
715.61	260.60
715.95	260.34
716.28	260.03
716.61	259.76
716.95	259.44
717.28	259.11
717.61	258.79
717.94	258.52
718.28	258.10
718.61	257.81
718.94	257.51
719.27	257.25
719.61	257.01
719.94	256.72
720.27	256.37
720.60	256.10
720.94	255.86
721.27	255.61
721.60	255.39
721.93	255.12
722.27	254.94
722.60	254.72
722.93	254.44
723.26	254.23
723.59	253.98
723.93	253.78
724.26	253.57
724.59	253.33
724.92	253.10
725.25	252.94
725.59	252.72
725.92	252.53
726.25	252.31
726.58	252.09
726.91	251.85
727.24	251.65
727.57	251.43
727.91	251.20
728.24	251.00
728.57	250.79
728.90	250.62
729.23	250.36
729.56	250.23
729.89	250.04
730.22	249.82
730.55	249.62
730.89	249.41
731.22	249.21
731.55	249.01
731.88	248.83
732.21	248.60
732.54	248.39
732.87	248.21
733.20	248.04
733.53	247.84
733.86	247.68
734.19	247.48
734.52	247.32
734.85	247.27
735.18	247.07
735.51	246.96
735.84	246.80
736.17	246.67
736.50	246.40
736.83	246.44
737.16	246.28
737.49	246.13
737.82	245.95
738.15	245.81
738.48	245.65
738.81	245.48
739.14	245.31
739.47	245.15
739.80	244.98
740.13	244.85
740.46	244.69
740.79	244.52
741.12	244.38
741.45	244.21
741.78	243.97
742.11	243.87
742.44	243.67
742.77	243.54
743.10	243.37
743.43	243.23
743.75	242.91
744.08	243.03
744.41	242.86
744.74	242.72
745.07	242.56
745.40	242.48
745.73	242.40
746.06	242.28
746.39	242.18
746.71	242.04
747.04	241.87
747.37	241.73
747.70	241.63
748.03	241.51
748.36	241.41
748.68	241.29
749.01	241.13
749.34	241.01
749.67	240.89
750.00	240.80
750.33	240.81
750.65	240.71
750.98	240.35
751.31	240.25
751.64	240.16
751.97	240.13
752.29	239.98
752.62	239.79
752.95	239.66
753.28	239.52
753.60	239.40
753.93	239.34
754.26	239.25
754.59	239.08
754.91	238.95
755.24	238.83
755.57	238.78
755.90	238.67
756.22	238.55
756.55	238.42
756.88	238.29
757.20	238.06
757.53	237.91
757.86	237.80
758.19	237.72
758.51	237.60
758.84	237.43
759.17	237.33
759.49	237.25
759.82	237.25
760.15	237.19
760.47	237.09
760.80	236.96
761.13	236.90
761.45	236.82
761.78	236.74
762.11	236.66
762.43	236.50
762.76	236.41
763.08	236.35
763.41	236.28
763.74	236.20
764.06	236.13
764.39	236.06
764.71	235.99
765.04	235.89
765.37	235.80
765.69	235.72
766.02	235.65
766.34	235.56
766.67	235.41
767.00	235.36
767.32	235.39
767.65	235.43
767.97	235.34
768.30	235.28
768.62	235.22
768.95	235.13
769.27	235.08
769.60	235.04
769.92	234.94
770.25	234.85
770.57	234.78
770.90	234.72
771.22	234.65
771.55	234.60
771.87	234.56
772.20	234.51
772.52	234.62
772.85	234.77
773.17	234.72
773.50	234.66
773.82	234.58
774.15	234.45
774.47	234.29
774.80	234.23
775.12	234.17
775.45	234.12
775.77	234.09
776.09	234.06
776.42	234.00
776.74	234.02
777.07	233.97
777.39	233.94
777.72	233.88
778.04	233.85
778.36	233.79
778.69	233.75
779.01	233.73
779.33	233.53
779.66	233.28
779.98	233.24
780.31	233.22
780.63	233.26
780.95	233.25
781.28	233.21
781.60	233.15
781.92	233.13
782.25	233.10
782.57	233.05
782.89	232.99
783.22	232.94
783.54	232.87
783.86	232.84
784.19	232.80
784.51	232.82
784.83	232.75
785.16	232.72
785.48	232.68
785.80	232.64
786.12	232.61
786.45	232.58
786.77	232.56
787.09	232.53
787.42	232.43
787.74	232.40
788.06	232.39
788.38	232.36
788.71	232.31
789.03	232.28
789.35	232.29
789.67	232.24
789.99	232.25
790.32	232.20
790.64	232.20
790.96	232.34
791.28	232.26
791.61	232.23
791.93	232.22
792.25	232.20
792.57	232.30
792.89	232.25
793.21	232.24
793.54	232.20
793.86	232.16
794.18	232.14
794.50	232.09
794.82	232.05
795.14	232.05
795.47	232.05
795.79	232.03
796.11	231.96
796.43	231.93
796.75	231.89
797.07	231.88
797.39	231.84
797.71	231.67
798.04	231.67
798.36	231.68
798.68	231.66
799.00	231.64
799.32	231.53
799.64	231.54
799.96	231.52
800.28	231.53
800.60	231.50
800.92	231.50
801.24	231.49
801.56	231.48
801.89	231.44
802.21	231.43
802.53	231.38
802.85	231.40
803.17	231.48
803.49	231.42
803.81	231.40
804.13	231.36
804.45	231.32
804.77	231.31
805.09	231.29
805.41	231.26
805.73	231.22
806.05	231.16
806.37	231.13
806.69	231.10
807.01	231.07
807.33	231.07
807.65	230.99
807.97	231.05
808.28	231.02
808.60	231.01
808.92	230.98
809.24	231.07
809.56	231.03
809.88	230.96
810.20	230.95
810.52	230.98
810.84	230.95
811.16	230.92
811.48	230.90
811.80	230.94
812.12	230.92
812.43	230.95
812.75	230.95
813.07	230.93
813.39	230.92
813.71	230.88
814.03	230.85
814.35	230.86
814.67	230.76
814.98	230.73
815.30	230.72
815.62	230.68
815.94	230.57
816.26	230.57
816.58	230.52
816.89	230.53
817.21	230.47
817.53	230.47
817.85	230.46
818.17	230.45
818.48	230.36
818.80	230.39
819.12	230.34
819.44	230.30
819.76	230.27
820.07	230.26
820.39	230.25
820.71	230.25
821.03	230.23
821.34	230.22
821.66	230.22
821.98	230.23
822.30	230.22
822.61	230.30
822.93	230.26
823.25	230.25
823.57	230.22
823.88	230.24
824.20	230.23
824.52	230.26
824.83	230.24
825.15	230.22
825.47	230.19
825.79	230.20
826.10	230.19
826.42	230.18
826.74	230.18
827.05	230.17
827.37	230.17
827.69	230.16
828.00	230.15
828.32	230.14
828.64	230.10
828.95	230.18
829.27	230.11
829.58	230.10
829.90	230.13
830.22	230.13
830.53	230.10
830.85	230.06
831.17	230.00
831.48	230.00
831.80	230.00
832.11	229.98
832.43	229.95
832.75	229.94
833.06	230.03
833.38	229.97
833.69	229.96
834.01	229.96
834.32	229.95
834.64	229.94
834.96	229.94
835.27	229.95
835.59	229.88
835.90	229.86
836.22	229.85
836.53	229.81
836.85	229.78
837.16	229.95
837.48	229.96
837.79	230.00
838.11	230.00
838.42	229.99
838.74	230.00
839.05	229.99
839.37	229.97
839.68	229.86
840.00	229.86
840.31	229.88
840.63	229.84
840.94	229.83
841.26	229.81
841.57	229.79
841.88	229.80
842.20	229.77
842.51	229.75
842.83	229.74
843.14	229.89
843.46	229.88
843.77	229.77
844.08	229.77
844.40	229.72
844.71	229.70
845.03	229.68
845.34	229.65
845.65	229.65
845.97	229.65
846.28	229.66
846.60	229.67
846.91	229.63
847.22	229.62
847.54	229.66
847.85	229.66
848.16	229.64
848.48	229.61
848.79	229.66
849.10	229.68
849.42	229.70
849.73	229.54
850.04	229.55
850.36	229.47
850.67	229.49
850.98	229.49
851.30	229.51
851.61	229.52
851.92	229.52
852.23	229.58
852.55	229.59
852.86	229.59
853.17	229.62
853.49	229.67
853.80	229.70
854.11	229.71
854.42	229.73
854.74	229.72
855.05	229.72
855.36	229.64
855.67	229.63
855.99	229.62
856.30	229.82
856.61	229.82
856.92	229.82
857.23	229.83
857.55	229.82
857.86	229.79
858.17	229.82
858.48	229.79
858.79	229.74
859.11	229.75
859.42	229.74
859.73	229.70
860.04	229.69
860.35	229.64
860.66	229.58
860.98	229.58
861.29	229.59
861.60	229.58
861.91	229.62
862.22	229.59
862.53	229.56
862.84	229.35
863.16	229.39
863.47	229.36
863.78	229.33
864.09	229.34
864.40	229.35
864.71	229.35
865.02	229.36
865.33	229.33
865.64	229.30
865.95	229.30
866.27	229.40
866.58	229.37
866.89	229.39
867.20	229.37
867.51	229.34
867.82	229.33
868.13	229.38
868.44	229.34
868.75	229.38
869.06	229.39
869.37	229.41
869.68	229.35
869.99	229.38
870.30	229.39
870.61	229.41
870.92	229.39
871.23	229.37
871.54	229.39
871.85	229.45
872.16	229.46
872.47	229.44
872.78	229.35
873.09	229.37
873.40	229.35
873.71	229.38
874.02	229.39
874.33	229.38
874.64	229.33
874.95	229.38
875.26	229.33
875.56	229.33
875.87	229.33
876.18	229.34
876.49	229.50
876.80	229.49
877.11	229.45
877.42	229.45
877.73	229.44
878.04	229.41
878.35	229.40
878.66	229.41
878.96	229.42
879.27	229.40
879.58	229.39
879.89	229.37
880.20	229.41
880.51	229.40
880.82	229.41
881.12	229.43
881.43	229.38
881.74	229.37
882.05	229.36
882.36	229.37
882.67	229.38
882.97	229.19
883.28	229.17
883.59	229.17
883.90	229.19
884.21	229.22
884.51	229.22
884.82	229.19
885.13	229.20
885.44	229.19
885.74	229.19
886.05	229.19
886.36	229.20
886.67	229.14
886.98	229.23
887.28	229.23
887.59	229.22
887.90	229.24
888.20	229.24
888.51	229.26
888.82	229.24
889.13	229.25
889.43	229.41
889.74	229.41
890.05	229.40
890.35	229.37
890.66	229.33
890.97	229.31
891.28	229.30
891.58	229.30
891.89	229.31
892.20	229.29
892.50	229.26
892.81	229.25
893.12	229.25
893.42	229.16
893.73	229.16
894.04	229.16
894.34	229.16
894.65	229.16
894.95	229.15
895.26	229.15
895.57	229.23
895.87	229.05
896.18	229.08
896.48	229.11
896.79	229.11
897.10	229.14
897.40	229.16
897.71	229.17
898.01	229.15
898.32	229.16
898.63	229.17
898.93	229.19
899.24	229.19
899.54	229.19
899.85	229.18
900.15	229.18
900.46	229.17
900.76	229.18
901.07	229.18
901.38	229.17
901.68	229.17
901.99	229.07
902.29	229.09
902.60	229.06
902.90	229.04
903.21	229.03
903.51	229.01
903.82	229.05
904.12	229.05
904.43	229.06
904.73	229.06
905.03	229.07
905.34	229.24
905.64	229.22
905.95	229.22
906.25	229.21
906.56	229.20
906.86	229.21
907.17	229.18
907.47	229.19
907.77	229.18
908.08	229.13
908.38	229.17
908.69	229.18
908.99	229.20
909.30	229.21
909.60	229.21
909.90	229.20
910.21	229.16
910.51	229.13
910.81	229.12
911.12	229.12
911.42	229.12
911.73	228.93
912.03	228.96
912.33	228.98
912.64	228.97
912.94	228.96
913.24	228.93
913.55	228.93
913.85	228.92
914.15	228.95
914.46	228.98
914.76	228.95
915.06	228.94
915.37	228.91
915.67	228.89
915.97	228.90
916.27	228.89
916.58	228.89
916.88	228.89
917.18	228.87
917.49	228.99
917.79	228.99
918.09	229.02
918.39	229.05
918.70	229.04
919.00	229.05
919.30	229.13
919.60	229.13
919.91	229.11
920.21	229.12
920.51	229.08
920.81	229.07
921.12	229.10
921.42	229.09
921.72	229.09
922.02	229.10
922.32	229.11
922.63	229.11
922.93	229.21
923.23	229.23
923.53	229.22
923.83	229.10
924.13	229.11
924.44	229.12
924.74	229.15
925.04	229.19
925.34	229.19
925.64	229.11
925.94	229.12
926.24	229.22
926.55	229.20
926.85	229.22
927.15	229.23
927.45	229.21
927.75	229.22
928.05	229.23
928.35	229.22
928.65	229.25
928.95	229.26
929.26	229.18
929.56	229.20
929.86	229.22
930.16	229.22
930.46	229.21
930.76	229.21
931.06	229.12
931.36	229.07
931.66	229.09
931.96	229.11
932.26	229.12
932.56	229.04
932.86	229.06
933.16	229.06
933.46	229.04
933.76	229.02
934.06	229.05
934.36	229.10
934.66	229.09
934.96	229.07
935.26	229.07
935.56	229.10
935.86	229.05
936.16	229.01
936.46	229.00
936.76	228.98
937.06	228.94
937.36	228.95
937.66	228.97
937.96	228.95
938.26	228.90
938.56	228.90
938.86	228.90
939.16	228.93
939.46	228.94
939.76	228.95
940.06	228.96
940.35	228.91
940.65	228.82
940.95	228.84
941.25	228.79
941.55	228.77
941.85	228.75
942.15	228.78
942.45	228.85
942.75	228.84
943.04	228.84
943.34	228.88
943.64	228.87
943.94	228.85
944.24	228.85
944.54	228.86
944.84	228.85
945.13	228.82
945.43	228.78
945.73	228.77
946.03	228.76
946.33	228.74
946.62	228.73
946.92	228.73
947.22	228.75
947.52	228.77
947.82	228.79
948.11	228.77
948.41	228.75
948.71	228.69
949.01	228.70
949.31	228.69
949.60	228.67
949.90	228.71
950.20	228.70
950.50	228.71
950.79	228.70
951.09	228.72
951.39	228.73
951.69	228.71
951.98	228.75
952.28	228.76
952.58	228.76
952.87	228.76
953.17	228.79
953.47	228.76
953.76	228.75
954.06	228.72
954.36	228.70
954.66	228.70
954.95	228.75
955.25	228.77
955.55	228.78
955.84	228.76
956.14	228.75
956.44	228.76
956.73	228.74
957.03	228.76
957.32	228.76
957.62	228.74
957.92	228.78
958.21	228.76
958.51	228.96
958.81	228.98
959.10	229.01
959.40	229.05
959.69	229.06
959.99	229.09
960.29	229.10
960.58	229.10
960.88	229.16
961.17	229.13
961.47	229.14
961.76	229.13
962.06	229.16
962.36	229.15
962.65	229.15
962.95	229.17
963.24	229.15
963.54	229.15
963.83	229.18
964.13	229.16
964.42	229.15
964.72	229.00
965.01	228.99
965.31	228.98
965.60	228.94
965.90	229.05
966.19	229.01
966.49	229.02
966.78	229.01
967.08	229.00
967.37	229.01
967.67	228.98
967.96	229.01
968.26	229.01
968.55	229.02
968.85	229.02
969.14	229.01
969.43	229.00
969.73	228.98
970.02	228.96
970.32	228.95
970.61	228.92
970.91	228.87
971.20	228.84
971.49	228.83
971.79	228.84
972.08	228.71
972.38	228.73
972.67	228.73
972.96	228.76
973.26	228.72
973.55	228.76
973.85	228.75
974.14	228.74
974.43	228.75
974.73	228.72
975.02	228.71
975.31	228.71
975.61	228.71
975.90	228.71
976.19	228.70
976.49	228.72
976.78	228.73
977.07	228.73
977.37	228.75
977.66	228.77
977.95	228.73
978.24	228.75
978.54	228.79
978.83	228.76
979.12	228.74
979.42	228.75
979.71	228.72
980.00	228.72
980.29	228.73
980.59	228.69
980.88	228.74
981.17	228.74
981.46	228.74
981.76	228.74
982.05	228.79
982.34	228.80
982.63	228.79
982.93	228.78
983.22	228.83
983.51	228.84
983.80	228.86
984.09	228.89
984.39	228.87
984.68	228.84
984.97	228.85
985.26	228.84
985.55	228.86
985.85	228.82
986.14	228.84
986.43	228.86
986.72	228.84
987.01	228.80
987.30	228.79
987.59	228.79
987.89	228.80
988.18	228.75
988.47	228.73
988.76	228.73
989.05	228.72
989.34	228.68
989.63	228.72
989.92	228.70
990.22	228.68
990.51	228.67
990.80	228.66
991.09	228.68
991.38	228.71
991.67	228.68
991.96	228.68
992.25	228.68
992.54	228.65
992.83	228.65
993.12	228.64
993.41	228.67
993.70	228.74
993.99	228.77
994.28	228.80
994.58	228.83
994.87	228.81
995.16	228.81
995.45	228.80
995.74	228.73
996.03	228.74
996.32	228.78
996.61	228.82
996.90	228.83
997.19	228.81
997.48	228.82
997.77	228.81
998.06	228.82
998.34	228.81
998.63	228.81
998.92	228.82
999.21	228.85
999.50	228.85
999.79	228.78
1000.08	228.77
1000.37	228.77
1000.66	228.76
1000.95	228.81
1001.24	228.81
1001.53	228.84
1001.82	228.84
1002.11	228.81
1002.40	228.81
1002.68	228.84
1002.97	228.96
1003.26	228.93
1003.55	228.90
1003.84	228.93
1004.13	228.99
1004.42	228.98
1004.71	228.99
1004.99	228.98
1005.28	229.02
1005.57	229.02
1005.86	228.99
1006.15	228.97
1006.44	228.94
1006.72	228.96
1007.01	228.92
1007.30	228.93
1007.59	228.92
1007.88	228.93
1008.17	228.94
1008.45	228.91
1008.74	228.84
1009.03	228.76
1009.32	228.77
1009.60	228.78
1009.89	228.75
1010.18	228.67
1010.47	228.65
1010.76	228.64
1011.04	228.64
1011.33	228.62
1011.62	228.63
1011.91	228.65
1012.19	228.65
1012.48	228.66
1012.77	228.64
1013.05	228.71
1013.34	228.71
1013.63	228.70
1013.92	228.70
1014.20	228.70
1014.49	228.70
1014.78	228.73
1015.06	228.66
1015.35	228.65
1015.64	228.68
1015.92	228.69
1016.21	228.70
1016.50	228.71
1016.78	228.74
1017.07	228.76
1017.36	228.73
1017.64	228.70
1017.93	228.72
1018.22	228.72
1018.50	228.72
1018.79	228.72
1019.08	228.65
1019.36	228.66
1019.65	228.64
1019.93	228.69
1020.22	228.72
1020.51	228.81
1020.79	228.79
1021.08	228.63
1021.36	228.41
1021.65	228.81
1021.94	228.52
1022.22	228.86
1022.51	228.31
1022.79	229.57
1023.08	229.10
1023.36	230.87
1023.65	228.22
>>>>>End Processed Spectral Data<<<<<
