SpectraSuite Data File
++++++++++++++++++++++++++++++++++++
Date: Wed Oct 07 01:56:18 EDT 2015
User: lab3
Dark Spectrum Present: No
Reference Spectrum Present: No
Number of Sampled Component Spectra: 1
Spectrometers: USB2E7196
Integration Time (usec): 66000 (USB2E7196)
Spectra Averaged: 10000 (USB2E7196)
Boxcar Smoothing: 10 (USB2E7196)
Correct for Electrical Dark: No (USB2E7196)
Strobe/Lamp Enabled: No (USB2E7196)
Correct for Detector Non-linearity: No (USB2E7196)
Correct for Stray Light: No (USB2E7196)
Number of Pixels in Processed Spectrum: 2048
>>>>>Begin Processed Spectral Data<<<<<
339.09	0.00
339.48	212.40
339.86	213.93
340.24	215.31
340.63	216.71
341.01	220.88
341.39	219.42
341.78	220.97
342.16	222.25
342.54	222.50
342.93	211.10
343.31	221.76
343.69	222.30
344.07	222.76
344.46	223.21
344.84	223.62
345.22	223.81
345.60	224.09
345.99	224.29
346.37	224.43
346.75	224.55
347.13	224.64
347.52	224.74
347.90	224.86
348.28	224.91
348.66	225.00
349.05	224.99
349.43	225.06
349.81	225.13
350.19	225.20
350.57	225.29
350.96	225.39
351.34	225.50
351.72	225.61
352.10	225.73
352.48	225.80
352.87	225.85
353.25	225.93
353.63	225.98
354.01	226.04
354.39	226.12
354.77	226.21
355.15	226.33
355.54	226.37
355.92	226.37
356.30	226.45
356.68	226.64
357.06	226.72
357.44	226.76
357.82	226.82
358.20	227.05
358.58	227.10
358.97	227.17
359.35	227.27
359.73	227.36
360.11	227.42
360.49	227.48
360.87	227.53
361.25	227.61
361.63	227.72
362.01	227.78
362.39	227.80
362.77	227.86
363.15	227.88
363.53	227.92
363.91	227.96
364.29	227.99
364.67	227.84
365.05	227.86
365.43	227.91
365.81	227.95
366.19	227.90
366.57	227.98
366.95	227.98
367.33	227.94
367.71	227.94
368.09	227.97
368.47	227.97
368.85	227.97
369.23	227.99
369.61	227.91
369.99	227.96
370.37	227.96
370.75	228.08
371.13	228.05
371.51	228.00
371.89	227.99
372.27	227.97
372.65	227.96
373.03	227.92
373.41	227.88
373.78	227.82
374.16	227.69
374.54	227.59
374.92	227.54
375.30	227.50
375.68	227.42
376.06	227.38
376.44	227.32
376.82	227.29
377.19	227.24
377.57	227.19
377.95	227.08
378.33	227.02
378.71	226.81
379.09	226.77
379.47	226.75
379.84	226.68
380.22	226.62
380.60	226.54
380.98	226.49
381.36	226.44
381.73	226.37
382.11	226.37
382.49	226.33
382.87	226.27
383.25	226.23
383.62	226.40
384.00	226.33
384.38	226.29
384.76	226.29
385.13	226.31
385.51	226.27
385.89	226.21
386.27	226.19
386.64	226.19
387.02	226.13
387.40	226.08
387.78	226.07
388.15	226.05
388.53	226.03
388.91	226.00
389.29	225.97
389.66	225.98
390.04	225.93
390.42	225.94
390.79	225.95
391.17	225.94
391.55	225.72
391.92	225.72
392.30	225.74
392.68	225.69
393.05	225.67
393.43	225.68
393.81	225.70
394.18	225.69
394.56	225.70
394.94	225.75
395.31	225.76
395.69	225.83
396.06	225.88
396.44	225.93
396.82	225.95
397.19	226.08
397.57	226.10
397.95	226.17
398.32	226.17
398.70	226.24
399.07	226.34
399.45	226.40
399.82	226.47
400.20	226.52
400.58	226.62
400.95	226.64
401.33	226.77
401.70	227.00
402.08	227.14
402.45	227.28
402.83	227.45
403.20	227.63
403.58	227.77
403.95	227.98
404.33	228.21
404.71	228.44
405.08	228.75
405.46	229.00
405.83	229.28
406.21	229.59
406.58	229.91
406.96	230.24
407.33	230.62
407.70	231.06
408.08	231.65
408.45	232.15
408.83	232.71
409.20	233.22
409.58	233.68
409.95	234.32
410.33	235.01
410.70	235.66
411.08	236.42
411.45	237.24
411.82	238.06
412.20	239.01
412.57	240.12
412.95	241.02
413.32	242.18
413.69	243.36
414.07	244.63
414.44	246.01
414.82	247.42
415.19	249.07
415.56	250.75
415.94	252.50
416.31	254.47
416.68	256.43
417.06	258.71
417.43	260.85
417.81	263.31
418.18	265.81
418.55	268.54
418.93	271.38
419.30	274.36
419.67	277.51
420.04	280.75
420.42	284.13
420.79	288.04
421.16	291.99
421.54	295.98
421.91	300.16
422.28	304.50
422.66	309.17
423.03	313.61
423.40	318.26
423.77	323.23
424.15	328.33
424.52	333.61
424.89	339.33
425.26	345.01
425.64	350.28
426.01	356.19
426.38	362.23
426.75	368.44
427.13	374.79
427.50	381.43
427.87	388.34
428.24	395.30
428.61	401.95
428.99	409.14
429.36	417.03
429.73	424.58
430.10	432.10
430.47	439.80
430.85	447.75
431.22	456.20
431.59	464.90
431.96	473.38
432.33	482.82
432.70	491.79
433.08	502.42
433.45	512.42
433.82	522.32
434.19	533.43
434.56	544.36
434.93	554.95
435.30	565.48
435.68	577.40
436.05	589.08
436.42	600.78
436.79	611.47
437.16	623.11
437.53	635.52
437.90	647.94
438.27	660.15
438.64	673.36
439.01	685.38
439.38	696.40
439.75	707.06
440.13	719.22
440.50	730.78
440.87	740.05
441.24	750.24
441.61	761.43
441.98	769.73
442.35	779.59
442.72	789.62
443.09	799.20
443.46	805.49
443.83	810.29
444.20	814.32
444.57	820.05
444.94	823.51
445.31	827.12
445.68	830.27
446.05	832.70
446.42	832.60
446.79	832.25
447.16	831.98
447.53	831.81
447.90	828.42
448.27	825.25
448.64	820.09
449.01	816.62
449.37	809.08
449.74	802.24
450.11	793.37
450.48	783.60
450.85	773.75
451.22	765.32
451.59	757.01
451.96	749.48
452.33	738.55
452.70	728.80
453.07	716.97
453.43	705.13
453.80	693.57
454.17	682.47
454.54	672.23
454.91	660.68
455.28	649.74
455.65	639.41
456.02	628.44
456.38	619.60
456.75	608.29
457.12	599.19
457.49	590.00
457.86	581.28
458.23	573.60
458.59	565.16
458.96	556.49
459.33	548.86
459.70	541.09
460.07	535.16
460.43	528.19
460.80	521.67
461.17	516.00
461.54	509.87
461.91	504.11
462.27	498.26
462.64	493.46
463.01	488.03
463.38	482.52
463.74	477.57
464.11	473.16
464.48	469.17
464.85	464.87
465.21	461.58
465.58	457.92
465.95	453.77
466.32	450.48
466.68	447.27
467.05	444.03
467.42	440.88
467.78	437.50
468.15	434.38
468.52	432.09
468.88	429.04
469.25	426.27
469.62	424.07
469.98	421.70
470.35	419.59
470.72	417.65
471.08	415.72
471.45	414.09
471.82	412.26
472.18	410.35
472.55	409.12
472.92	407.57
473.28	406.37
473.65	405.07
474.02	403.81
474.38	402.74
474.75	402.10
475.11	401.23
475.48	400.82
475.85	400.36
476.21	400.08
476.58	399.88
476.94	400.02
477.31	400.03
477.67	400.07
478.04	400.34
478.41	400.74
478.77	401.32
479.14	401.66
479.50	402.41
479.87	403.39
480.23	404.35
480.60	405.25
480.96	406.16
481.33	407.57
481.69	408.96
482.06	410.31
482.42	411.56
482.79	413.11
483.15	414.94
483.52	417.01
483.88	418.98
484.25	421.08
484.61	423.28
484.98	425.66
485.34	428.34
485.71	431.11
486.07	434.13
486.44	437.07
486.80	440.42
487.17	443.82
487.53	447.52
487.90	451.40
488.26	455.63
488.62	460.10
488.99	464.55
489.35	469.24
489.72	474.28
490.08	479.58
490.44	484.99
490.81	490.61
491.17	496.41
491.54	502.64
491.90	509.00
492.26	515.80
492.63	522.94
492.99	530.39
493.36	538.02
493.72	546.02
494.08	554.25
494.45	562.87
494.81	571.90
495.17	581.15
495.54	590.92
495.90	601.13
496.26	611.53
496.63	622.26
496.99	633.35
497.35	644.97
497.72	656.91
498.08	669.17
498.44	681.77
498.80	695.07
499.17	708.63
499.53	722.67
499.89	737.13
500.26	751.85
500.62	766.91
500.98	782.87
501.34	798.86
501.71	815.58
502.07	832.68
502.43	850.21
502.79	868.01
503.16	886.28
503.52	904.80
503.88	923.70
504.24	943.10
504.60	962.77
504.97	983.04
505.33	1003.82
505.69	1025.71
506.05	1047.81
506.41	1069.94
506.78	1092.21
507.14	1115.00
507.50	1138.32
507.86	1162.01
508.22	1185.93
508.59	1209.74
508.95	1234.56
509.31	1259.98
509.67	1286.04
510.03	1312.11
510.39	1338.04
510.75	1364.07
511.12	1390.38
511.48	1417.11
511.84	1443.75
512.20	1470.69
512.56	1498.80
512.92	1526.78
513.28	1554.06
513.64	1581.80
514.00	1609.89
514.37	1638.30
514.73	1666.78
515.09	1694.59
515.45	1722.64
515.81	1751.07
516.17	1779.25
516.53	1806.75
516.89	1833.90
517.25	1861.33
517.61	1888.59
517.97	1916.50
518.33	1943.93
518.69	1971.32
519.05	1998.98
519.41	2026.82
519.77	2054.89
520.13	2081.35
520.49	2107.71
520.85	2134.54
521.21	2160.76
521.57	2187.32
521.93	2212.70
522.29	2238.84
522.65	2264.77
523.01	2290.48
523.37	2315.37
523.73	2341.02
524.09	2366.35
524.45	2391.58
524.81	2416.21
525.17	2440.73
525.53	2464.23
525.89	2488.22
526.25	2511.92
526.61	2533.87
526.97	2555.91
527.33	2577.55
527.68	2599.27
528.04	2620.57
528.40	2640.81
528.76	2660.99
529.12	2680.60
529.48	2701.08
529.84	2718.78
530.20	2736.75
530.56	2754.07
530.91	2771.40
531.27	2788.01
531.63	2803.88
531.99	2819.19
532.35	2834.32
532.71	2849.07
533.07	2864.36
533.42	2877.65
533.78	2890.96
534.14	2905.45
534.50	2918.86
534.86	2932.88
535.21	2944.37
535.57	2955.84
535.93	2966.79
536.29	2976.17
536.65	2985.32
537.00	2993.20
537.36	3002.19
537.72	3010.36
538.08	3018.12
538.44	3024.50
538.79	3030.82
539.15	3035.83
539.51	3040.11
539.87	3043.06
540.22	3044.23
540.58	3045.66
540.94	3047.65
541.29	3048.80
541.65	3048.43
542.01	3047.63
542.37	3045.05
542.72	3044.36
543.08	3041.78
543.44	3039.39
543.79	3036.88
544.15	3033.57
544.51	3030.06
544.87	3025.67
545.22	3020.30
545.58	3014.33
545.94	3008.86
546.29	3001.93
546.65	2995.03
547.01	2988.29
547.36	2982.21
547.72	2976.29
548.07	2968.61
548.43	2959.77
548.79	2950.48
549.14	2941.46
549.50	2932.59
549.86	2922.91
550.21	2911.34
550.57	2901.13
550.92	2889.30
551.28	2877.50
551.64	2866.04
551.99	2854.42
552.35	2842.34
552.70	2830.15
553.06	2818.54
553.41	2806.48
553.77	2793.96
554.13	2781.57
554.48	2768.04
554.84	2753.13
555.19	2738.68
555.55	2724.30
555.90	2710.46
556.26	2696.90
556.61	2682.30
556.97	2666.50
557.32	2651.08
557.68	2636.11
558.03	2620.69
558.39	2606.12
558.74	2592.38
559.10	2576.79
559.45	2561.07
559.81	2545.98
560.16	2530.48
560.52	2514.67
560.87	2499.18
561.23	2483.21
561.58	2467.82
561.94	2452.09
562.29	2436.01
562.64	2420.12
563.00	2404.17
563.35	2388.50
563.71	2372.35
564.06	2356.40
564.42	2340.94
564.77	2325.64
565.12	2309.97
565.48	2293.95
565.83	2277.99
566.19	2261.93
566.54	2246.04
566.89	2229.80
567.25	2213.62
567.60	2198.32
567.96	2182.49
568.31	2165.06
568.66	2148.33
569.02	2132.31
569.37	2116.85
569.72	2101.91
570.08	2086.58
570.43	2070.57
570.78	2054.29
571.14	2038.03
571.49	2021.66
571.84	2005.55
572.20	1988.18
572.55	1971.52
572.90	1955.03
573.26	1938.79
573.61	1921.87
573.96	1905.44
574.31	1888.91
574.67	1871.98
575.02	1854.68
575.37	1837.37
575.72	1820.96
576.08	1804.50
576.43	1786.99
576.78	1769.80
577.13	1752.87
577.49	1736.08
577.84	1719.90
578.19	1703.29
578.54	1686.56
578.90	1669.76
579.25	1652.75
579.60	1637.11
579.95	1621.16
580.30	1605.17
580.66	1588.84
581.01	1572.62
581.36	1556.44
581.71	1541.15
582.06	1525.94
582.42	1510.57
582.77	1495.54
583.12	1480.77
583.47	1466.09
583.82	1451.59
584.17	1436.46
584.53	1421.47
584.88	1406.82
585.23	1392.01
585.58	1377.60
585.93	1363.03
586.28	1349.52
586.63	1335.92
586.98	1321.74
587.34	1308.02
587.69	1294.12
588.04	1280.51
588.39	1267.18
588.74	1253.55
589.09	1240.01
589.44	1226.10
589.79	1212.89
590.14	1199.68
590.49	1186.51
590.84	1173.55
591.19	1161.01
591.54	1148.64
591.89	1135.91
592.25	1123.47
592.60	1110.88
592.95	1098.44
593.30	1086.50
593.65	1074.21
594.00	1062.25
594.35	1051.22
594.70	1039.47
595.05	1028.33
595.40	1017.10
595.75	1005.72
596.10	994.95
596.45	984.07
596.80	973.75
597.15	963.32
597.50	952.86
597.85	942.83
598.19	932.74
598.54	922.62
598.89	913.01
599.24	903.80
599.59	894.32
599.94	885.59
600.29	876.92
600.64	868.02
600.99	859.00
601.34	850.35
601.69	841.15
602.04	832.90
602.39	824.56
602.74	816.43
603.08	808.42
603.43	800.42
603.78	792.45
604.13	784.47
604.48	776.51
604.83	768.89
605.18	761.21
605.53	753.77
605.87	746.33
606.22	739.00
606.57	731.58
606.92	724.14
607.27	716.71
607.62	709.43
607.96	702.42
608.31	695.96
608.66	689.32
609.01	682.99
609.36	676.63
609.70	670.27
610.05	663.87
610.40	657.67
610.75	651.43
611.10	645.45
611.44	639.45
611.79	633.65
612.14	627.69
612.49	621.82
612.83	616.27
613.18	610.80
613.53	605.32
613.88	599.96
614.22	595.01
614.57	589.97
614.92	585.06
615.27	580.26
615.61	575.33
615.96	570.51
616.31	565.64
616.65	560.92
617.00	556.31
617.35	551.82
617.70	547.33
618.04	542.97
618.39	538.68
618.74	534.69
619.08	530.64
619.43	526.75
619.78	522.82
620.12	518.82
620.47	515.03
620.82	511.34
621.16	507.72
621.51	504.12
621.85	500.52
622.20	496.97
622.55	493.47
622.89	489.97
623.24	486.67
623.59	483.44
623.93	480.28
624.28	477.24
624.62	474.40
624.97	471.60
625.32	468.71
625.66	465.82
626.01	462.86
626.35	460.09
626.70	457.26
627.04	454.64
627.39	451.99
627.73	449.41
628.08	446.87
628.43	444.35
628.77	441.77
629.12	439.29
629.46	436.93
629.81	434.72
630.15	432.42
630.50	430.14
630.84	427.92
631.19	425.74
631.53	423.67
631.88	421.42
632.22	419.24
632.57	417.38
632.91	415.47
633.26	413.63
633.60	411.80
633.95	410.07
634.29	408.22
634.64	406.42
634.98	404.52
635.32	402.80
635.67	401.26
636.01	399.70
636.36	398.19
636.70	396.75
637.05	395.15
637.39	393.73
637.73	392.29
638.08	390.92
638.42	389.60
638.77	388.15
639.11	386.65
639.45	385.22
639.80	383.75
640.14	382.34
640.49	380.93
640.83	379.54
641.17	378.20
641.52	376.88
641.86	375.61
642.20	374.48
642.55	373.17
642.89	371.88
643.23	370.66
643.58	369.58
643.92	368.34
644.26	367.18
644.61	366.08
644.95	364.93
645.29	363.74
645.64	362.53
645.98	361.42
646.32	360.45
646.66	359.41
647.01	358.38
647.35	357.46
647.69	356.49
648.04	355.61
648.38	354.64
648.72	353.73
649.06	352.81
649.41	351.88
649.75	351.00
650.09	350.14
650.43	349.27
650.78	348.34
651.12	347.49
651.46	346.65
651.80	345.82
652.14	345.05
652.49	344.34
652.83	343.56
653.17	342.76
653.51	341.97
653.85	341.31
654.20	340.59
654.54	339.78
654.88	339.02
655.22	338.32
655.56	337.58
655.90	336.89
656.25	336.22
656.59	335.55
656.93	334.92
657.27	334.34
657.61	333.67
657.95	333.09
658.29	332.46
658.64	331.86
658.98	331.20
659.32	330.55
659.66	329.94
660.00	329.38
660.34	328.82
660.68	328.20
661.02	327.53
661.36	326.89
661.70	326.31
662.05	325.74
662.39	325.18
662.73	324.72
663.07	324.29
663.41	323.81
663.75	323.28
664.09	322.77
664.43	322.14
664.77	321.61
665.11	321.03
665.45	320.51
665.79	319.99
666.13	319.48
666.47	318.95
666.81	318.38
667.15	317.77
667.49	317.29
667.83	316.88
668.17	316.42
668.51	316.01
668.85	315.62
669.19	315.28
669.53	314.76
669.87	314.21
670.21	313.65
670.55	313.13
670.89	312.73
671.23	312.26
671.57	311.85
671.91	311.50
672.25	311.16
672.58	310.83
672.92	310.40
673.26	310.05
673.60	309.71
673.94	309.34
674.28	309.01
674.62	308.64
674.96	308.21
675.30	307.86
675.64	307.42
675.97	306.97
676.31	306.48
676.65	306.08
676.99	305.76
677.33	305.33
677.67	304.94
678.01	304.46
678.34	304.07
678.68	303.69
679.02	303.24
679.36	302.80
679.70	302.34
680.04	301.94
680.37	301.53
680.71	301.14
681.05	300.78
681.39	300.38
681.73	299.93
682.06	299.50
682.40	299.10
682.74	298.75
683.08	298.45
683.42	298.07
683.75	297.73
684.09	297.27
684.43	296.90
684.77	296.49
685.10	296.12
685.44	295.72
685.78	295.30
686.12	294.92
686.45	294.50
686.79	294.07
687.13	293.67
687.46	293.23
687.80	292.81
688.14	292.35
688.48	291.93
688.81	291.50
689.15	291.14
689.49	290.69
689.82	290.25
690.16	289.71
690.50	289.27
690.83	288.81
691.17	288.36
691.51	287.92
691.84	287.53
692.18	287.08
692.52	286.62
692.85	286.19
693.19	285.81
693.52	285.38
693.86	284.93
694.20	284.50
694.53	284.08
694.87	283.61
695.21	283.14
695.54	282.70
695.88	282.24
696.21	281.74
696.55	281.30
696.88	280.84
697.22	280.43
697.56	280.02
697.89	279.55
698.23	279.12
698.56	278.67
698.90	278.27
699.23	277.81
699.57	277.40
699.90	276.97
700.24	276.50
700.58	276.09
700.91	275.73
701.25	275.47
701.58	275.15
701.92	274.80
702.25	274.42
702.59	274.00
702.92	273.61
703.26	273.20
703.59	272.79
703.93	272.52
704.26	272.13
704.60	271.71
704.93	271.30
705.26	270.88
705.60	270.52
705.93	270.06
706.27	269.74
706.60	269.40
706.94	269.08
707.27	268.65
707.61	268.25
707.94	267.83
708.27	267.26
708.61	266.79
708.94	266.36
709.28	265.96
709.61	265.58
709.94	265.23
710.28	264.88
710.61	264.55
710.95	264.04
711.28	263.79
711.61	263.43
711.95	263.11
712.28	262.74
712.61	262.36
712.95	262.11
713.28	261.83
713.61	261.43
713.95	261.03
714.28	260.72
714.61	260.35
714.95	260.02
715.28	259.68
715.61	259.37
715.95	259.07
716.28	258.74
716.61	258.46
716.95	258.12
717.28	257.80
717.61	257.47
717.94	257.17
718.28	256.75
718.61	256.45
718.94	256.12
719.27	255.83
719.61	255.57
719.94	255.24
720.27	254.85
720.60	254.57
720.94	254.29
721.27	254.01
721.60	253.77
721.93	253.49
722.27	253.27
722.60	253.00
722.93	252.68
723.26	252.44
723.59	252.14
723.93	251.90
724.26	251.66
724.59	251.40
724.92	251.16
725.25	250.96
725.59	250.72
725.92	250.50
726.25	250.25
726.58	250.01
726.91	249.75
727.24	249.53
727.57	249.28
727.91	249.01
728.24	248.80
728.57	248.55
728.90	248.34
729.23	248.05
729.56	247.91
729.89	247.70
730.22	247.47
730.55	247.25
730.89	247.03
731.22	246.80
731.55	246.59
731.88	246.38
732.21	246.14
732.54	245.92
732.87	245.71
733.20	245.52
733.53	245.33
733.86	245.15
734.19	244.93
734.52	244.77
734.85	244.73
735.18	244.51
735.51	244.38
735.84	244.20
736.17	244.08
736.50	243.80
736.83	243.83
737.16	243.65
737.49	243.48
737.82	243.29
738.15	243.13
738.48	242.95
738.81	242.76
739.14	242.57
739.47	242.38
739.80	242.21
740.13	242.05
740.46	241.84
740.79	241.64
741.12	241.46
741.45	241.26
741.78	240.98
742.11	240.86
742.44	240.63
742.77	240.49
743.10	240.29
743.43	240.12
743.75	239.77
744.08	239.88
744.41	239.70
744.74	239.55
745.07	239.35
745.40	239.25
745.73	239.17
746.06	239.04
746.39	238.92
746.71	238.77
747.04	238.61
747.37	238.46
747.70	238.35
748.03	238.22
748.36	238.12
748.68	237.98
749.01	237.80
749.34	237.68
749.67	237.55
750.00	237.45
750.33	237.46
750.65	237.34
750.98	236.94
751.31	236.84
751.64	236.74
751.97	236.72
752.29	236.57
752.62	236.36
752.95	236.24
753.28	236.09
753.60	235.96
753.93	235.88
754.26	235.78
754.59	235.61
754.91	235.48
755.24	235.33
755.57	235.23
755.90	235.11
756.22	234.97
756.55	234.83
756.88	234.67
757.20	234.44
757.53	234.28
757.86	234.17
758.19	234.06
758.51	233.95
758.84	233.75
759.17	233.63
759.49	233.55
759.82	233.53
760.15	233.46
760.47	233.36
760.80	233.21
761.13	233.13
761.45	233.05
761.78	232.96
762.11	232.88
762.43	232.76
762.76	232.67
763.08	232.60
763.41	232.53
763.74	232.46
764.06	232.38
764.39	232.30
764.71	232.21
765.04	232.10
765.37	232.01
765.69	231.93
766.02	231.85
766.34	231.75
766.67	231.61
767.00	231.56
767.32	231.59
767.65	231.63
767.97	231.54
768.30	231.48
768.62	231.41
768.95	231.31
769.27	231.25
769.60	231.20
769.92	231.10
770.25	231.00
770.57	230.90
770.90	230.83
771.22	230.75
771.55	230.69
771.87	230.65
772.20	230.59
772.52	230.69
772.85	230.85
773.17	230.80
773.50	230.73
773.82	230.64
774.15	230.49
774.47	230.31
774.80	230.25
775.12	230.19
775.45	230.13
775.77	230.09
776.09	230.05
776.42	229.99
776.74	230.00
777.07	229.96
777.39	229.93
777.72	229.87
778.04	229.85
778.36	229.78
778.69	229.73
779.01	229.70
779.33	229.50
779.66	229.24
779.98	229.19
780.31	229.16
780.63	229.19
780.95	229.19
781.28	229.14
781.60	229.09
781.92	229.05
782.25	229.01
782.57	228.97
782.89	228.92
783.22	228.87
783.54	228.79
783.86	228.77
784.19	228.73
784.51	228.74
784.83	228.68
785.16	228.64
785.48	228.61
785.80	228.58
786.12	228.56
786.45	228.52
786.77	228.50
787.09	228.45
787.42	228.35
787.74	228.32
788.06	228.30
788.38	228.26
788.71	228.22
789.03	228.20
789.35	228.19
789.67	228.13
789.99	228.12
790.32	228.07
790.64	228.06
790.96	228.21
791.28	228.12
791.61	228.08
791.93	228.07
792.25	228.02
792.57	228.13
792.89	228.07
793.21	228.05
793.54	228.01
793.86	227.97
794.18	227.95
794.50	227.89
794.82	227.87
795.14	227.87
795.47	227.89
795.79	227.86
796.11	227.80
796.43	227.77
796.75	227.75
797.07	227.74
797.39	227.70
797.71	227.52
798.04	227.51
798.36	227.50
798.68	227.48
799.00	227.47
799.32	227.35
799.64	227.36
799.96	227.34
800.28	227.36
800.60	227.33
800.92	227.33
801.24	227.30
801.56	227.29
801.89	227.25
802.21	227.24
802.53	227.18
802.85	227.21
803.17	227.28
803.49	227.22
803.81	227.18
804.13	227.15
804.45	227.11
804.77	227.11
805.09	227.09
805.41	227.05
805.73	227.00
806.05	226.94
806.37	226.90
806.69	226.87
807.01	226.82
807.33	226.82
807.65	226.73
807.97	226.80
808.28	226.76
808.60	226.74
808.92	226.69
809.24	226.79
809.56	226.74
809.88	226.65
810.20	226.65
810.52	226.67
810.84	226.63
811.16	226.60
811.48	226.56
811.80	226.62
812.12	226.59
812.43	226.62
812.75	226.62
813.07	226.59
813.39	226.59
813.71	226.55
814.03	226.52
814.35	226.52
814.67	226.43
814.98	226.41
815.30	226.39
815.62	226.35
815.94	226.22
816.26	226.23
816.58	226.18
816.89	226.18
817.21	226.12
817.53	226.13
817.85	226.13
818.17	226.11
818.48	226.02
818.80	226.05
819.12	226.00
819.44	225.95
819.76	225.92
820.07	225.90
820.39	225.89
820.71	225.89
821.03	225.89
821.34	225.86
821.66	225.88
821.98	225.88
822.30	225.86
822.61	225.97
822.93	225.93
823.25	225.92
823.57	225.89
823.88	225.90
824.20	225.89
824.52	225.91
824.83	225.89
825.15	225.86
825.47	225.84
825.79	225.84
826.10	225.83
826.42	225.82
826.74	225.83
827.05	225.81
827.37	225.81
827.69	225.79
828.00	225.79
828.32	225.78
828.64	225.74
828.95	225.84
829.27	225.76
829.58	225.76
829.90	225.78
830.22	225.79
830.53	225.75
830.85	225.72
831.17	225.67
831.48	225.66
831.80	225.67
832.11	225.65
832.43	225.61
832.75	225.61
833.06	225.71
833.38	225.65
833.69	225.64
834.01	225.64
834.32	225.63
834.64	225.61
834.96	225.60
835.27	225.59
835.59	225.52
835.90	225.49
836.22	225.48
836.53	225.44
836.85	225.41
837.16	225.60
837.48	225.59
837.79	225.65
838.11	225.65
838.42	225.65
838.74	225.66
839.05	225.64
839.37	225.63
839.68	225.51
840.00	225.50
840.31	225.52
840.63	225.50
840.94	225.47
841.26	225.45
841.57	225.44
841.88	225.45
842.20	225.42
842.51	225.38
842.83	225.38
843.14	225.54
843.46	225.53
843.77	225.42
844.08	225.41
844.40	225.35
844.71	225.32
845.03	225.30
845.34	225.28
845.65	225.28
845.97	225.28
846.28	225.29
846.60	225.30
846.91	225.27
847.22	225.26
847.54	225.29
847.85	225.30
848.16	225.28
848.48	225.24
848.79	225.32
849.10	225.34
849.42	225.35
849.73	225.17
850.04	225.17
850.36	225.10
850.67	225.13
850.98	225.13
851.30	225.15
851.61	225.14
851.92	225.14
852.23	225.19
852.55	225.20
852.86	225.20
853.17	225.21
853.49	225.25
853.80	225.28
854.11	225.29
854.42	225.31
854.74	225.29
855.05	225.30
855.36	225.21
855.67	225.21
855.99	225.20
856.30	225.42
856.61	225.41
856.92	225.41
857.23	225.41
857.55	225.39
857.86	225.38
858.17	225.40
858.48	225.37
858.79	225.32
859.11	225.34
859.42	225.32
859.73	225.29
860.04	225.27
860.35	225.22
860.66	225.16
860.98	225.14
861.29	225.17
861.60	225.15
861.91	225.20
862.22	225.16
862.53	225.13
862.84	224.91
863.16	224.95
863.47	224.91
863.78	224.88
864.09	224.90
864.40	224.90
864.71	224.90
865.02	224.92
865.33	224.90
865.64	224.86
865.95	224.86
866.27	224.98
866.58	224.96
866.89	224.98
867.20	224.98
867.51	224.95
867.82	224.93
868.13	224.99
868.44	224.94
868.75	224.98
869.06	225.00
869.37	225.02
869.68	224.97
869.99	225.00
870.30	225.01
870.61	225.02
870.92	224.99
871.23	224.97
871.54	224.99
871.85	225.04
872.16	225.06
872.47	225.04
872.78	224.93
873.09	224.95
873.40	224.93
873.71	224.95
874.02	224.96
874.33	224.94
874.64	224.90
874.95	224.93
875.26	224.89
875.56	224.88
875.87	224.86
876.18	224.86
876.49	225.04
876.80	225.02
877.11	224.98
877.42	224.99
877.73	225.00
878.04	224.97
878.35	224.96
878.66	224.96
878.96	224.96
879.27	224.95
879.58	224.94
879.89	224.93
880.20	224.98
880.51	224.97
880.82	224.98
881.12	224.99
881.43	224.95
881.74	224.93
882.05	224.92
882.36	224.93
882.67	224.95
882.97	224.75
883.28	224.74
883.59	224.74
883.90	224.75
884.21	224.78
884.51	224.77
884.82	224.74
885.13	224.74
885.44	224.74
885.74	224.74
886.05	224.73
886.36	224.73
886.67	224.66
886.98	224.76
887.28	224.77
887.59	224.77
887.90	224.78
888.20	224.77
888.51	224.81
888.82	224.78
889.13	224.79
889.43	224.95
889.74	224.94
890.05	224.94
890.35	224.92
890.66	224.88
890.97	224.87
891.28	224.85
891.58	224.85
891.89	224.85
892.20	224.83
892.50	224.81
892.81	224.80
893.12	224.80
893.42	224.70
893.73	224.70
894.04	224.70
894.34	224.71
894.65	224.71
894.95	224.69
895.26	224.70
895.57	224.77
895.87	224.59
896.18	224.62
896.48	224.63
896.79	224.63
897.10	224.66
897.40	224.67
897.71	224.69
898.01	224.68
898.32	224.70
898.63	224.69
898.93	224.71
899.24	224.72
899.54	224.71
899.85	224.70
900.15	224.69
900.46	224.69
900.76	224.70
901.07	224.69
901.38	224.69
901.68	224.71
901.99	224.61
902.29	224.63
902.60	224.61
902.90	224.59
903.21	224.59
903.51	224.57
903.82	224.60
904.12	224.60
904.43	224.61
904.73	224.60
905.03	224.61
905.34	224.79
905.64	224.78
905.95	224.78
906.25	224.78
906.56	224.78
906.86	224.77
907.17	224.76
907.47	224.77
907.77	224.75
908.08	224.72
908.38	224.73
908.69	224.74
908.99	224.77
909.30	224.78
909.60	224.78
909.90	224.78
910.21	224.73
910.51	224.70
910.81	224.69
911.12	224.70
911.42	224.70
911.73	224.51
912.03	224.53
912.33	224.57
912.64	224.55
912.94	224.53
913.24	224.51
913.55	224.49
913.85	224.48
914.15	224.52
914.46	224.54
914.76	224.52
915.06	224.51
915.37	224.48
915.67	224.46
915.97	224.47
916.27	224.45
916.58	224.45
916.88	224.45
917.18	224.44
917.49	224.56
917.79	224.55
918.09	224.58
918.39	224.62
918.70	224.60
919.00	224.61
919.30	224.69
919.60	224.69
919.91	224.67
920.21	224.68
920.51	224.64
920.81	224.63
921.12	224.65
921.42	224.65
921.72	224.66
922.02	224.68
922.32	224.70
922.63	224.71
922.93	224.81
923.23	224.82
923.53	224.81
923.83	224.68
924.13	224.70
924.44	224.70
924.74	224.72
925.04	224.76
925.34	224.76
925.64	224.68
925.94	224.68
926.24	224.79
926.55	224.77
926.85	224.79
927.15	224.79
927.45	224.79
927.75	224.79
928.05	224.79
928.35	224.77
928.65	224.80
928.95	224.81
929.26	224.73
929.56	224.76
929.86	224.78
930.16	224.77
930.46	224.75
930.76	224.76
931.06	224.67
931.36	224.63
931.66	224.66
931.96	224.68
932.26	224.69
932.56	224.61
932.86	224.62
933.16	224.62
933.46	224.61
933.76	224.58
934.06	224.61
934.36	224.67
934.66	224.66
934.96	224.63
935.26	224.64
935.56	224.66
935.86	224.61
936.16	224.59
936.46	224.57
936.76	224.56
937.06	224.53
937.36	224.55
937.66	224.56
937.96	224.54
938.26	224.50
938.56	224.49
938.86	224.50
939.16	224.54
939.46	224.55
939.76	224.56
940.06	224.57
940.35	224.53
940.65	224.44
940.95	224.46
941.25	224.41
941.55	224.39
941.85	224.37
942.15	224.42
942.45	224.47
942.75	224.46
943.04	224.47
943.34	224.51
943.64	224.49
943.94	224.47
944.24	224.47
944.54	224.48
944.84	224.48
945.13	224.45
945.43	224.42
945.73	224.41
946.03	224.39
946.33	224.38
946.62	224.36
946.92	224.36
947.22	224.37
947.52	224.39
947.82	224.41
948.11	224.40
948.41	224.35
948.71	224.30
949.01	224.31
949.31	224.30
949.60	224.28
949.90	224.31
950.20	224.30
950.50	224.30
950.79	224.28
951.09	224.31
951.39	224.31
951.69	224.29
951.98	224.33
952.28	224.33
952.58	224.33
952.87	224.33
953.17	224.36
953.47	224.34
953.76	224.33
954.06	224.30
954.36	224.28
954.66	224.28
954.95	224.32
955.25	224.34
955.55	224.35
955.84	224.33
956.14	224.34
956.44	224.36
956.73	224.33
957.03	224.34
957.32	224.34
957.62	224.33
957.92	224.37
958.21	224.35
958.51	224.56
958.81	224.58
959.10	224.60
959.40	224.64
959.69	224.65
959.99	224.68
960.29	224.68
960.58	224.68
960.88	224.75
961.17	224.73
961.47	224.74
961.76	224.72
962.06	224.76
962.36	224.73
962.65	224.73
962.95	224.75
963.24	224.73
963.54	224.73
963.83	224.75
964.13	224.74
964.42	224.72
964.72	224.56
965.01	224.57
965.31	224.55
965.60	224.50
965.90	224.62
966.19	224.58
966.49	224.59
966.78	224.59
967.08	224.57
967.37	224.57
967.67	224.54
967.96	224.57
968.26	224.57
968.55	224.60
968.85	224.59
969.14	224.59
969.43	224.59
969.73	224.57
970.02	224.56
970.32	224.55
970.61	224.52
970.91	224.47
971.20	224.44
971.49	224.43
971.79	224.45
972.08	224.31
972.38	224.34
972.67	224.32
972.96	224.35
973.26	224.32
973.55	224.37
973.85	224.36
974.14	224.34
974.43	224.35
974.73	224.31
975.02	224.30
975.31	224.30
975.61	224.30
975.90	224.29
976.19	224.27
976.49	224.29
976.78	224.30
977.07	224.30
977.37	224.32
977.66	224.34
977.95	224.31
978.24	224.33
978.54	224.36
978.83	224.35
979.12	224.34
979.42	224.34
979.71	224.30
980.00	224.30
980.29	224.30
980.59	224.27
980.88	224.32
981.17	224.31
981.46	224.31
981.76	224.32
982.05	224.38
982.34	224.39
982.63	224.39
982.93	224.40
983.22	224.44
983.51	224.45
983.80	224.47
984.09	224.49
984.39	224.48
984.68	224.45
984.97	224.46
985.26	224.44
985.55	224.46
985.85	224.43
986.14	224.46
986.43	224.47
986.72	224.47
987.01	224.41
987.30	224.41
987.59	224.40
987.89	224.40
988.18	224.34
988.47	224.33
988.76	224.31
989.05	224.29
989.34	224.27
989.63	224.31
989.92	224.28
990.22	224.25
990.51	224.25
990.80	224.24
991.09	224.25
991.38	224.28
991.67	224.26
991.96	224.25
992.25	224.25
992.54	224.21
992.83	224.22
993.12	224.22
993.41	224.25
993.70	224.32
993.99	224.35
994.28	224.38
994.58	224.41
994.87	224.39
995.16	224.39
995.45	224.37
995.74	224.31
996.03	224.34
996.32	224.37
996.61	224.41
996.90	224.41
997.19	224.40
997.48	224.39
997.77	224.38
998.06	224.40
998.34	224.38
998.63	224.38
998.92	224.39
999.21	224.42
999.50	224.42
999.79	224.35
1000.08	224.34
1000.37	224.34
1000.66	224.32
1000.95	224.37
1001.24	224.38
1001.53	224.41
1001.82	224.40
1002.11	224.36
1002.40	224.37
1002.68	224.40
1002.97	224.53
1003.26	224.51
1003.55	224.48
1003.84	224.50
1004.13	224.56
1004.42	224.55
1004.71	224.55
1004.99	224.53
1005.28	224.57
1005.57	224.56
1005.86	224.54
1006.15	224.53
1006.44	224.50
1006.72	224.52
1007.01	224.49
1007.30	224.49
1007.59	224.46
1007.88	224.47
1008.17	224.48
1008.45	224.44
1008.74	224.36
1009.03	224.27
1009.32	224.28
1009.60	224.28
1009.89	224.27
1010.18	224.19
1010.47	224.18
1010.76	224.18
1011.04	224.18
1011.33	224.17
1011.62	224.18
1011.91	224.20
1012.19	224.21
1012.48	224.22
1012.77	224.21
1013.05	224.28
1013.34	224.27
1013.63	224.27
1013.92	224.28
1014.20	224.27
1014.49	224.28
1014.78	224.30
1015.06	224.24
1015.35	224.24
1015.64	224.26
1015.92	224.29
1016.21	224.31
1016.50	224.31
1016.78	224.33
1017.07	224.35
1017.36	224.31
1017.64	224.28
1017.93	224.30
1018.22	224.28
1018.50	224.27
1018.79	224.26
1019.08	224.20
1019.36	224.21
1019.65	224.19
1019.93	224.23
1020.22	224.26
1020.51	224.36
1020.79	224.33
1021.08	224.00
1021.36	223.93
1021.65	224.26
1021.94	224.22
1022.22	224.34
1022.51	223.86
1022.79	225.11
1023.08	224.52
1023.36	226.46
1023.65	223.85
>>>>>End Processed Spectral Data<<<<<
