SpectraSuite Data File
++++++++++++++++++++++++++++++++++++
Date: Tue Oct 06 13:26:35 EDT 2015
User: lab3
Dark Spectrum Present: No
Reference Spectrum Present: No
Number of Sampled Component Spectra: 1
Spectrometers: USB2E7196
Integration Time (usec): 66000 (USB2E7196)
Spectra Averaged: 1000 (USB2E7196)
Boxcar Smoothing: 10 (USB2E7196)
Correct for Electrical Dark: No (USB2E7196)
Strobe/Lamp Enabled: No (USB2E7196)
Correct for Detector Non-linearity: No (USB2E7196)
Correct for Stray Light: No (USB2E7196)
Number of Pixels in Processed Spectrum: 2048
>>>>>Begin Processed Spectral Data<<<<<
339.09	0.00
339.48	216.11
339.86	217.58
340.24	218.95
340.63	220.57
341.01	224.49
341.39	223.09
341.78	224.48
342.16	225.81
342.54	226.22
342.93	214.56
343.31	225.39
343.69	225.92
344.07	226.39
344.46	226.83
344.84	227.22
345.22	227.42
345.60	227.69
345.99	227.89
346.37	228.02
346.75	228.14
347.13	228.23
347.52	228.31
347.90	228.42
348.28	228.46
348.66	228.54
349.05	228.53
349.43	228.59
349.81	228.65
350.19	228.72
350.57	228.79
350.96	228.89
351.34	229.00
351.72	229.10
352.10	229.21
352.48	229.28
352.87	229.33
353.25	229.39
353.63	229.44
354.01	229.52
354.39	229.60
354.77	229.67
355.15	229.79
355.54	229.82
355.92	229.84
356.30	229.93
356.68	230.10
357.06	230.17
357.44	230.21
357.82	230.28
358.20	230.49
358.58	230.54
358.97	230.61
359.35	230.70
359.73	230.81
360.11	230.87
360.49	230.94
360.87	230.99
361.25	231.06
361.63	231.17
362.01	231.22
362.39	231.25
362.77	231.31
363.15	231.32
363.53	231.36
363.91	231.41
364.29	231.43
364.67	231.30
365.05	231.33
365.43	231.37
365.81	231.41
366.19	231.37
366.57	231.45
366.95	231.45
367.33	231.40
367.71	231.39
368.09	231.43
368.47	231.42
368.85	231.40
369.23	231.42
369.61	231.34
369.99	231.38
370.37	231.39
370.75	231.51
371.13	231.49
371.51	231.44
371.89	231.44
372.27	231.41
372.65	231.40
373.03	231.37
373.41	231.32
373.78	231.26
374.16	231.14
374.54	231.04
374.92	230.99
375.30	230.97
375.68	230.90
376.06	230.86
376.44	230.81
376.82	230.78
377.19	230.73
377.57	230.69
377.95	230.58
378.33	230.51
378.71	230.31
379.09	230.26
379.47	230.25
379.84	230.18
380.22	230.13
380.60	230.05
380.98	230.00
381.36	229.95
381.73	229.90
382.11	229.89
382.49	229.85
382.87	229.79
383.25	229.74
383.62	229.91
384.00	229.83
384.38	229.80
384.76	229.80
385.13	229.81
385.51	229.77
385.89	229.74
386.27	229.72
386.64	229.71
387.02	229.65
387.40	229.60
387.78	229.58
388.15	229.55
388.53	229.52
388.91	229.48
389.29	229.45
389.66	229.45
390.04	229.40
390.42	229.41
390.79	229.41
391.17	229.40
391.55	229.18
391.92	229.17
392.30	229.18
392.68	229.14
393.05	229.12
393.43	229.13
393.81	229.14
394.18	229.12
394.56	229.13
394.94	229.19
395.31	229.21
395.69	229.27
396.06	229.31
396.44	229.36
396.82	229.37
397.19	229.50
397.57	229.53
397.95	229.60
398.32	229.60
398.70	229.67
399.07	229.76
399.45	229.82
399.82	229.89
400.20	229.95
400.58	230.03
400.95	230.06
401.33	230.19
401.70	230.41
402.08	230.54
402.45	230.67
402.83	230.85
403.20	231.01
403.58	231.14
403.95	231.35
404.33	231.57
404.71	231.79
405.08	232.09
405.46	232.32
405.83	232.59
406.21	232.88
406.58	233.19
406.96	233.51
407.33	233.89
407.70	234.30
408.08	234.85
408.45	235.34
408.83	235.86
409.20	236.34
409.58	236.79
409.95	237.40
410.33	238.04
410.70	238.66
411.08	239.39
411.45	240.16
411.82	240.95
412.20	241.86
412.57	242.93
412.95	243.78
413.32	244.89
413.69	246.04
414.07	247.25
414.44	248.58
414.82	249.94
415.19	251.53
415.56	253.14
415.94	254.81
416.31	256.69
416.68	258.60
417.06	260.79
417.43	262.83
417.81	265.19
418.18	267.59
418.55	270.23
418.93	272.97
419.30	275.82
419.67	278.84
420.04	281.94
420.42	285.21
420.79	288.98
421.16	292.79
421.54	296.63
421.91	300.67
422.28	304.84
422.66	309.33
423.03	313.61
423.40	318.10
423.77	322.90
424.15	327.78
424.52	332.86
424.89	338.37
425.26	343.83
425.64	348.90
426.01	354.60
426.38	360.42
426.75	366.41
427.13	372.52
427.50	378.93
427.87	385.55
428.24	392.19
428.61	398.54
428.99	405.42
429.36	413.02
429.73	420.28
430.10	427.50
430.47	434.90
430.85	442.54
431.22	450.70
431.59	459.05
431.96	467.18
432.33	476.25
432.70	484.86
433.08	495.11
433.45	504.74
433.82	514.20
434.19	524.76
434.56	535.14
434.93	545.23
435.30	555.24
435.68	566.62
436.05	577.74
436.42	588.88
436.79	599.03
437.16	609.97
437.53	621.75
437.90	633.59
438.27	645.11
438.64	657.51
439.01	668.83
439.38	679.29
439.75	689.36
440.13	700.82
440.50	711.76
440.87	720.42
441.24	729.97
441.61	740.46
441.98	748.18
442.35	757.32
442.72	766.70
443.09	775.73
443.46	781.67
443.83	786.11
444.20	789.78
444.57	795.16
444.94	798.49
445.31	801.78
445.68	804.59
446.05	806.72
446.42	806.55
446.79	806.16
447.16	805.82
447.53	805.67
447.90	802.46
448.27	799.29
448.64	794.28
449.01	790.99
449.37	783.90
449.74	777.56
450.11	769.29
450.48	760.08
450.85	750.78
451.22	742.71
451.59	734.88
451.96	727.91
452.33	717.65
452.70	708.44
453.07	697.29
453.43	686.19
453.80	675.39
454.17	665.06
454.54	655.37
454.91	644.43
455.28	634.05
455.65	624.23
456.02	613.92
456.38	605.63
456.75	594.87
457.12	586.22
457.49	577.46
457.86	569.21
458.23	561.98
458.59	553.96
458.96	545.77
459.33	538.58
459.70	531.21
460.07	525.53
460.43	518.87
460.80	512.63
461.17	507.17
461.54	501.33
461.91	495.83
462.27	490.27
462.64	485.73
463.01	480.52
463.38	475.33
463.74	470.64
464.11	466.48
464.48	462.75
464.85	458.68
465.21	455.54
465.58	452.09
465.95	448.13
466.32	444.96
466.68	441.86
467.05	438.74
467.42	435.71
467.78	432.47
468.15	429.51
468.52	427.32
468.88	424.45
469.25	421.83
469.62	419.75
469.98	417.47
470.35	415.43
470.72	413.61
471.08	411.70
471.45	410.12
471.82	408.33
472.18	406.47
472.55	405.27
472.92	403.79
473.28	402.60
473.65	401.35
474.02	400.19
474.38	399.21
474.75	398.60
475.11	397.75
475.48	397.35
475.85	396.92
476.21	396.70
476.58	396.52
476.94	396.68
477.31	396.74
477.67	396.86
478.04	397.15
478.41	397.55
478.77	398.15
479.14	398.48
479.50	399.23
479.87	400.19
480.23	401.14
480.60	402.03
480.96	402.96
481.33	404.36
481.69	405.72
482.06	407.08
482.42	408.35
482.79	409.90
483.15	411.74
483.52	413.80
483.88	415.79
484.25	417.93
484.61	420.14
484.98	422.51
485.34	425.18
485.71	427.97
486.07	430.94
486.44	433.83
486.80	437.12
487.17	440.48
487.53	444.15
487.90	447.98
488.26	452.18
488.62	456.59
488.99	461.00
489.35	465.66
489.72	470.69
490.08	475.96
490.44	481.35
490.81	486.87
491.17	492.54
491.54	498.57
491.90	504.77
492.26	511.39
492.63	518.30
492.99	525.48
493.36	532.90
493.72	540.73
494.08	548.71
494.45	557.07
494.81	565.86
495.17	574.83
495.54	584.31
495.90	594.16
496.26	604.27
496.63	614.62
496.99	625.34
497.35	636.46
497.72	647.94
498.08	659.87
498.44	672.04
498.80	685.00
499.17	698.33
499.53	712.06
499.89	726.13
500.26	740.32
500.62	754.80
500.98	769.97
501.34	785.31
501.71	801.38
502.07	817.76
502.43	834.54
502.79	851.42
503.16	868.79
503.52	886.43
503.88	904.51
504.24	923.08
504.60	941.84
504.97	961.09
505.33	980.76
505.69	1001.40
506.05	1022.10
506.41	1042.71
506.78	1063.61
507.14	1085.31
507.50	1107.48
507.86	1130.05
508.22	1152.73
508.59	1175.27
508.95	1198.65
509.31	1222.45
509.67	1246.90
510.03	1271.19
510.39	1295.95
510.75	1320.72
511.12	1345.49
511.48	1370.35
511.84	1395.27
512.20	1420.66
512.56	1446.43
512.92	1472.04
513.28	1497.31
513.64	1522.97
514.00	1548.68
514.37	1574.56
514.73	1600.17
515.09	1625.27
515.45	1650.70
515.81	1676.20
516.17	1701.77
516.53	1726.66
516.89	1751.52
517.25	1776.45
517.61	1801.27
517.97	1826.19
518.33	1850.75
518.69	1875.26
519.05	1899.87
519.41	1924.41
519.77	1948.87
520.13	1973.09
520.49	1997.11
520.85	2021.19
521.21	2045.11
521.57	2069.20
521.93	2092.21
522.29	2115.72
522.65	2138.78
523.01	2161.59
523.37	2183.58
523.73	2205.95
524.09	2228.51
524.45	2251.06
524.81	2272.75
525.17	2294.23
525.53	2315.03
525.89	2336.09
526.25	2356.75
526.61	2376.28
526.97	2396.00
527.33	2415.21
527.68	2433.55
528.04	2451.33
528.40	2468.00
528.76	2485.24
529.12	2501.32
529.48	2517.84
529.84	2533.09
530.20	2549.42
530.56	2564.61
530.91	2579.76
531.27	2593.93
531.63	2607.14
531.99	2620.06
532.35	2631.44
532.71	2642.90
533.07	2654.69
533.42	2664.97
533.78	2675.85
534.14	2687.01
534.50	2696.76
534.86	2706.68
535.21	2714.66
535.57	2722.78
535.93	2731.33
536.29	2738.66
536.65	2746.22
537.00	2751.66
537.36	2757.49
537.72	2761.58
538.08	2765.48
538.44	2768.49
538.79	2771.87
539.15	2774.61
539.51	2776.70
539.87	2779.45
540.22	2780.12
540.58	2781.28
540.94	2782.04
541.29	2781.42
541.65	2779.28
542.01	2777.20
542.37	2774.09
542.72	2772.69
543.08	2769.92
543.44	2766.96
543.79	2762.29
544.15	2757.44
544.51	2753.42
544.87	2747.48
545.22	2741.00
545.58	2734.73
545.94	2729.27
546.29	2721.98
546.65	2714.04
547.01	2706.17
547.36	2697.91
547.72	2689.57
548.07	2680.05
548.43	2670.32
548.79	2659.53
549.14	2649.80
549.50	2639.90
549.86	2629.45
550.21	2617.07
550.57	2606.05
550.92	2593.27
551.28	2581.12
551.64	2569.30
551.99	2557.49
552.35	2545.77
552.70	2533.75
553.06	2522.07
553.41	2509.12
553.77	2495.92
554.13	2482.96
554.48	2469.23
554.84	2455.02
555.19	2441.80
555.55	2427.66
555.90	2413.68
556.26	2400.67
556.61	2386.93
556.97	2372.19
557.32	2357.77
557.68	2343.64
558.03	2328.96
558.39	2315.05
558.74	2301.44
559.10	2285.65
559.45	2270.49
559.81	2255.98
560.16	2241.21
560.52	2226.07
560.87	2211.82
561.23	2197.06
561.58	2182.61
561.94	2167.45
562.29	2152.46
562.64	2137.29
563.00	2122.34
563.35	2108.00
563.71	2093.46
564.06	2078.45
564.42	2063.95
564.77	2049.49
565.12	2035.48
565.48	2021.29
565.83	2006.78
566.19	1992.36
566.54	1978.55
566.89	1963.44
567.25	1947.87
567.60	1933.52
567.96	1918.62
568.31	1903.10
568.66	1888.49
569.02	1873.90
569.37	1859.48
569.72	1845.30
570.08	1831.03
570.43	1816.70
570.78	1801.56
571.14	1786.42
571.49	1771.66
571.84	1757.75
572.20	1742.53
572.55	1727.49
572.90	1711.91
573.26	1696.46
573.61	1680.67
573.96	1665.49
574.31	1651.00
574.67	1636.97
575.02	1622.08
575.37	1606.88
575.72	1591.63
576.08	1576.70
576.43	1561.85
576.78	1547.04
577.13	1532.32
577.49	1517.59
577.84	1502.82
578.19	1488.27
578.54	1473.72
578.90	1459.09
579.25	1443.94
579.60	1430.02
579.95	1416.02
580.30	1402.27
580.66	1388.52
581.01	1374.93
581.36	1361.24
581.71	1347.43
582.06	1333.71
582.42	1320.14
582.77	1306.99
583.12	1294.07
583.47	1281.01
583.82	1268.08
584.17	1255.13
584.53	1242.24
584.88	1229.75
585.23	1217.01
585.58	1204.55
585.93	1192.12
586.28	1180.32
586.63	1168.40
586.98	1156.34
587.34	1144.64
587.69	1132.73
588.04	1121.17
588.39	1109.78
588.74	1098.25
589.09	1087.14
589.44	1075.49
589.79	1064.44
590.14	1053.47
590.49	1042.64
590.84	1032.11
591.19	1021.61
591.54	1011.14
591.89	1000.47
592.25	989.84
592.60	979.26
592.95	968.90
593.30	958.60
593.65	948.22
594.00	938.10
594.35	928.64
594.70	918.74
595.05	909.50
595.40	900.06
595.75	890.54
596.10	881.46
596.45	872.25
596.80	863.44
597.15	854.57
597.50	845.78
597.85	837.33
598.19	828.78
598.54	820.23
598.89	811.88
599.24	803.95
599.59	796.09
599.94	788.68
600.29	781.06
600.64	773.55
600.99	766.01
601.34	758.68
601.69	750.81
602.04	743.50
602.39	736.29
602.74	729.33
603.08	722.40
603.43	715.54
603.78	708.77
604.13	702.17
604.48	695.56
604.83	689.18
605.18	682.73
605.53	676.45
605.87	670.07
606.22	663.94
606.57	657.76
606.92	651.47
607.27	645.35
607.62	639.58
607.96	633.89
608.31	628.51
608.66	622.94
609.01	617.64
609.36	612.56
609.70	607.36
610.05	602.11
610.40	597.00
610.75	591.85
611.10	587.01
611.44	582.09
611.79	577.28
612.14	572.43
612.49	567.62
612.83	563.01
613.18	558.64
613.53	554.26
613.88	549.91
614.22	545.79
614.57	541.56
614.92	537.37
615.27	533.29
615.61	529.21
615.96	525.32
616.31	521.41
616.65	517.45
617.00	513.63
617.35	509.89
617.70	506.26
618.04	502.79
618.39	499.23
618.74	495.82
619.08	492.35
619.43	488.98
619.78	485.72
620.12	482.47
620.47	479.38
620.82	476.30
621.16	473.29
621.51	470.40
621.85	467.56
622.20	464.79
622.55	461.99
622.89	459.25
623.24	456.64
623.59	454.04
623.93	451.54
624.28	449.12
624.62	446.91
624.97	444.66
625.32	442.25
625.66	439.86
626.01	437.54
626.35	435.40
626.70	433.20
627.04	431.16
627.39	429.04
627.73	426.94
628.08	424.97
628.43	423.02
628.77	421.06
629.12	419.20
629.46	417.30
629.81	415.55
630.15	413.72
630.50	411.89
630.84	410.16
631.19	408.48
631.53	406.85
631.88	405.02
632.22	403.29
632.57	401.88
632.91	400.45
633.26	399.07
633.60	397.64
633.95	396.30
634.29	394.82
634.64	393.42
634.98	391.92
635.32	390.56
635.67	389.29
636.01	388.01
636.36	386.77
636.70	385.66
637.05	384.41
637.39	383.28
637.73	382.17
638.08	381.08
638.42	379.99
638.77	378.78
639.11	377.59
639.45	376.46
639.80	375.29
640.14	374.16
640.49	372.99
640.83	371.89
641.17	370.78
641.52	369.71
641.86	368.71
642.20	367.86
642.55	366.81
642.89	365.80
643.23	364.80
643.58	363.92
643.92	362.86
644.26	361.89
644.61	360.98
644.95	360.05
645.29	359.09
645.64	358.12
645.98	357.21
646.32	356.39
646.66	355.52
647.01	354.62
647.35	353.81
647.69	353.00
648.04	352.20
648.38	351.38
648.72	350.61
649.06	349.85
649.41	349.03
649.75	348.27
650.09	347.56
650.43	346.82
650.78	346.02
651.12	345.30
651.46	344.59
651.80	343.87
652.14	343.15
652.49	342.47
652.83	341.76
653.17	341.07
653.51	340.41
653.85	339.81
654.20	339.20
654.54	338.48
654.88	337.83
655.22	337.21
655.56	336.51
655.90	335.83
656.25	335.16
656.59	334.50
656.93	333.91
657.27	333.35
657.61	332.71
657.95	332.14
658.29	331.56
658.64	331.04
658.98	330.43
659.32	329.85
659.66	329.29
660.00	328.75
660.34	328.20
660.68	327.63
661.02	326.99
661.36	326.40
661.70	325.84
662.05	325.30
662.39	324.79
662.73	324.36
663.07	323.96
663.41	323.50
663.75	322.97
664.09	322.47
664.43	321.86
664.77	321.38
665.11	320.80
665.45	320.27
665.79	319.72
666.13	319.20
666.47	318.68
666.81	318.13
667.15	317.54
667.49	317.07
667.83	316.64
668.17	316.19
668.51	315.75
668.85	315.33
669.19	314.95
669.53	314.42
669.87	313.93
670.21	313.43
670.55	312.96
670.89	312.62
671.23	312.18
671.57	311.75
671.91	311.36
672.25	311.00
672.58	310.64
672.92	310.19
673.26	309.80
673.60	309.40
673.94	309.02
674.28	308.67
674.62	308.29
674.96	307.83
675.30	307.42
675.64	307.00
675.97	306.56
676.31	306.06
676.65	305.64
676.99	305.28
677.33	304.81
677.67	304.39
678.01	303.83
678.34	303.39
678.68	302.99
679.02	302.52
679.36	302.09
679.70	301.61
680.04	301.19
680.37	300.77
680.71	300.35
681.05	299.94
681.39	299.50
681.73	299.03
682.06	298.58
682.40	298.17
682.74	297.79
683.08	297.45
683.42	297.03
683.75	296.62
684.09	296.11
684.43	295.67
684.77	295.21
685.10	294.85
685.44	294.48
685.78	294.06
686.12	293.67
686.45	293.23
686.79	292.77
687.13	292.37
687.46	291.92
687.80	291.50
688.14	291.01
688.48	290.59
688.81	290.17
689.15	289.83
689.49	289.37
689.82	288.90
690.16	288.37
690.50	287.94
690.83	287.51
691.17	287.06
691.51	286.65
691.84	286.28
692.18	285.86
692.52	285.38
692.85	284.95
693.19	284.59
693.52	284.18
693.86	283.79
694.20	283.36
694.53	282.96
694.87	282.51
695.21	282.10
695.54	281.69
695.88	281.24
696.21	280.75
696.55	280.33
696.88	279.92
697.22	279.52
697.56	279.13
697.89	278.69
698.23	278.29
698.56	277.85
698.90	277.44
699.23	276.99
699.57	276.60
699.90	276.17
700.24	275.70
700.58	275.32
700.91	274.95
701.25	274.72
701.58	274.41
701.92	274.09
702.25	273.74
702.59	273.34
702.92	272.97
703.26	272.60
703.59	272.21
703.93	271.97
704.26	271.60
704.60	271.22
704.93	270.82
705.26	270.43
705.60	270.09
705.93	269.67
706.27	269.36
706.60	269.02
706.94	268.73
707.27	268.32
707.61	267.94
707.94	267.55
708.27	267.01
708.61	266.56
708.94	266.16
709.28	265.80
709.61	265.44
709.94	265.12
710.28	264.80
710.61	264.51
710.95	264.03
711.28	263.82
711.61	263.49
711.95	263.23
712.28	262.90
712.61	262.55
712.95	262.32
713.28	262.07
713.61	261.73
713.95	261.37
714.28	261.10
714.61	260.77
714.95	260.47
715.28	260.17
715.61	259.87
715.95	259.60
716.28	259.29
716.61	259.01
716.95	258.69
717.28	258.37
717.61	258.04
717.94	257.76
718.28	257.35
718.61	257.07
718.94	256.75
719.27	256.49
719.61	256.25
719.94	255.96
720.27	255.60
720.60	255.33
720.94	255.07
721.27	254.82
721.60	254.59
721.93	254.33
722.27	254.14
722.60	253.92
722.93	253.65
723.26	253.40
723.59	253.15
723.93	252.96
724.26	252.75
724.59	252.53
724.92	252.32
725.25	252.14
725.59	251.93
725.92	251.76
726.25	251.54
726.58	251.32
726.91	251.08
727.24	250.87
727.57	250.65
727.91	250.41
728.24	250.23
728.57	250.00
728.90	249.83
729.23	249.58
729.56	249.48
729.89	249.29
730.22	249.09
730.55	248.91
730.89	248.69
731.22	248.48
731.55	248.28
731.88	248.07
732.21	247.85
732.54	247.64
732.87	247.44
733.20	247.27
733.53	247.09
733.86	246.93
734.19	246.73
734.52	246.59
734.85	246.54
735.18	246.34
735.51	246.22
735.84	246.06
736.17	245.92
736.50	245.64
736.83	245.66
737.16	245.49
737.49	245.33
737.82	245.16
738.15	245.02
738.48	244.87
738.81	244.70
739.14	244.53
739.47	244.38
739.80	244.22
740.13	244.09
740.46	243.91
740.79	243.74
741.12	243.59
741.45	243.41
741.78	243.17
742.11	243.07
742.44	242.88
742.77	242.75
743.10	242.59
743.43	242.44
743.75	242.11
744.08	242.25
744.41	242.08
744.74	241.94
745.07	241.76
745.40	241.66
745.73	241.59
746.06	241.46
746.39	241.35
746.71	241.20
747.04	241.04
747.37	240.91
747.70	240.81
748.03	240.69
748.36	240.59
748.68	240.46
749.01	240.29
749.34	240.17
749.67	240.05
750.00	239.96
750.33	239.97
750.65	239.87
750.98	239.51
751.31	239.42
751.64	239.32
751.97	239.30
752.29	239.17
752.62	238.98
752.95	238.85
753.28	238.72
753.60	238.61
753.93	238.54
754.26	238.45
754.59	238.29
754.91	238.16
755.24	238.04
755.57	237.93
755.90	237.82
756.22	237.70
756.55	237.57
756.88	237.42
757.20	237.20
757.53	237.06
757.86	236.95
758.19	236.86
758.51	236.76
758.84	236.60
759.17	236.50
759.49	236.41
759.82	236.40
760.15	236.33
760.47	236.23
760.80	236.09
761.13	236.03
761.45	235.95
761.78	235.86
762.11	235.80
762.43	235.69
762.76	235.61
763.08	235.56
763.41	235.49
763.74	235.43
764.06	235.35
764.39	235.28
764.71	235.20
765.04	235.09
765.37	235.01
765.69	234.93
766.02	234.85
766.34	234.76
766.67	234.63
767.00	234.58
767.32	234.62
767.65	234.67
767.97	234.58
768.30	234.52
768.62	234.46
768.95	234.37
769.27	234.29
769.60	234.25
769.92	234.15
770.25	234.07
770.57	233.98
770.90	233.91
771.22	233.83
771.55	233.79
771.87	233.75
772.20	233.70
772.52	233.80
772.85	233.96
773.17	233.92
773.50	233.85
773.82	233.78
774.15	233.64
774.47	233.47
774.80	233.41
775.12	233.35
775.45	233.29
775.77	233.26
776.09	233.24
776.42	233.20
776.74	233.21
777.07	233.15
777.39	233.13
777.72	233.07
778.04	233.06
778.36	233.00
778.69	232.96
779.01	232.92
779.33	232.72
779.66	232.47
779.98	232.42
780.31	232.39
780.63	232.44
780.95	232.42
781.28	232.37
781.60	232.33
781.92	232.31
782.25	232.27
782.57	232.24
782.89	232.18
783.22	232.13
783.54	232.06
783.86	232.04
784.19	232.00
784.51	232.01
784.83	231.95
785.16	231.91
785.48	231.88
785.80	231.84
786.12	231.83
786.45	231.79
786.77	231.78
787.09	231.74
787.42	231.63
787.74	231.62
788.06	231.61
788.38	231.58
788.71	231.53
789.03	231.51
789.35	231.50
789.67	231.46
789.99	231.45
790.32	231.40
790.64	231.40
790.96	231.53
791.28	231.44
791.61	231.41
791.93	231.40
792.25	231.36
792.57	231.47
792.89	231.41
793.21	231.40
793.54	231.34
793.86	231.30
794.18	231.29
794.50	231.23
794.82	231.20
795.14	231.19
795.47	231.20
795.79	231.18
796.11	231.12
796.43	231.09
796.75	231.06
797.07	231.04
797.39	231.00
797.71	230.84
798.04	230.84
798.36	230.83
798.68	230.81
799.00	230.81
799.32	230.70
799.64	230.71
799.96	230.70
800.28	230.71
800.60	230.68
800.92	230.67
801.24	230.63
801.56	230.63
801.89	230.59
802.21	230.58
802.53	230.54
802.85	230.56
803.17	230.63
803.49	230.57
803.81	230.54
804.13	230.53
804.45	230.48
804.77	230.47
805.09	230.45
805.41	230.43
805.73	230.37
806.05	230.31
806.37	230.28
806.69	230.24
807.01	230.21
807.33	230.21
807.65	230.13
807.97	230.20
808.28	230.16
808.60	230.14
808.92	230.09
809.24	230.18
809.56	230.13
809.88	230.05
810.20	230.06
810.52	230.08
810.84	230.05
811.16	230.03
811.48	229.99
811.80	230.04
812.12	230.02
812.43	230.05
812.75	230.04
813.07	230.01
813.39	230.01
813.71	229.98
814.03	229.96
814.35	229.95
814.67	229.86
814.98	229.83
815.30	229.83
815.62	229.78
815.94	229.67
816.26	229.67
816.58	229.62
816.89	229.62
817.21	229.56
817.53	229.56
817.85	229.55
818.17	229.54
818.48	229.46
818.80	229.47
819.12	229.43
819.44	229.40
819.76	229.37
820.07	229.35
820.39	229.34
820.71	229.36
821.03	229.36
821.34	229.35
821.66	229.36
821.98	229.37
822.30	229.36
822.61	229.47
822.93	229.44
823.25	229.43
823.57	229.41
823.88	229.43
824.20	229.42
824.52	229.44
824.83	229.43
825.15	229.40
825.47	229.38
825.79	229.39
826.10	229.37
826.42	229.36
826.74	229.37
827.05	229.35
827.37	229.34
827.69	229.32
828.00	229.33
828.32	229.31
828.64	229.28
828.95	229.37
829.27	229.30
829.58	229.29
829.90	229.31
830.22	229.32
830.53	229.28
830.85	229.25
831.17	229.20
831.48	229.20
831.80	229.20
832.11	229.19
832.43	229.16
832.75	229.15
833.06	229.25
833.38	229.19
833.69	229.19
834.01	229.18
834.32	229.17
834.64	229.15
834.96	229.15
835.27	229.15
835.59	229.09
835.90	229.07
836.22	229.07
836.53	229.03
836.85	229.01
837.16	229.18
837.48	229.19
837.79	229.25
838.11	229.25
838.42	229.24
838.74	229.27
839.05	229.25
839.37	229.25
839.68	229.14
840.00	229.13
840.31	229.15
840.63	229.13
840.94	229.10
841.26	229.08
841.57	229.07
841.88	229.08
842.20	229.05
842.51	229.01
842.83	229.00
843.14	229.15
843.46	229.14
843.77	229.02
844.08	229.02
844.40	228.96
844.71	228.94
845.03	228.92
845.34	228.90
845.65	228.90
845.97	228.90
846.28	228.91
846.60	228.91
846.91	228.88
847.22	228.88
847.54	228.92
847.85	228.94
848.16	228.90
848.48	228.87
848.79	228.93
849.10	228.95
849.42	228.95
849.73	228.79
850.04	228.79
850.36	228.73
850.67	228.76
850.98	228.76
851.30	228.77
851.61	228.77
851.92	228.76
852.23	228.81
852.55	228.81
852.86	228.81
853.17	228.83
853.49	228.87
853.80	228.90
854.11	228.90
854.42	228.92
854.74	228.92
855.05	228.91
855.36	228.82
855.67	228.81
855.99	228.80
856.30	229.00
856.61	228.99
856.92	228.99
857.23	228.99
857.55	228.98
857.86	228.95
858.17	228.98
858.48	228.95
858.79	228.90
859.11	228.92
859.42	228.90
859.73	228.87
860.04	228.86
860.35	228.80
860.66	228.75
860.98	228.74
861.29	228.75
861.60	228.75
861.91	228.80
862.22	228.78
862.53	228.75
862.84	228.56
863.16	228.59
863.47	228.57
863.78	228.53
864.09	228.55
864.40	228.56
864.71	228.55
865.02	228.57
865.33	228.55
865.64	228.52
865.95	228.52
866.27	228.63
866.58	228.61
866.89	228.63
867.20	228.63
867.51	228.59
867.82	228.58
868.13	228.64
868.44	228.58
868.75	228.61
869.06	228.63
869.37	228.63
869.68	228.57
869.99	228.60
870.30	228.60
870.61	228.61
870.92	228.58
871.23	228.57
871.54	228.58
871.85	228.62
872.16	228.64
872.47	228.61
872.78	228.52
873.09	228.53
873.40	228.50
873.71	228.52
874.02	228.52
874.33	228.50
874.64	228.45
874.95	228.49
875.26	228.45
875.56	228.44
875.87	228.43
876.18	228.43
876.49	228.60
876.80	228.59
877.11	228.55
877.42	228.56
877.73	228.56
878.04	228.53
878.35	228.52
878.66	228.51
878.96	228.50
879.27	228.48
879.58	228.45
879.89	228.44
880.20	228.49
880.51	228.49
880.82	228.50
881.12	228.50
881.43	228.46
881.74	228.45
882.05	228.43
882.36	228.45
882.67	228.46
882.97	228.27
883.28	228.26
883.59	228.26
883.90	228.28
884.21	228.29
884.51	228.29
884.82	228.27
885.13	228.28
885.44	228.29
885.74	228.29
886.05	228.28
886.36	228.29
886.67	228.22
886.98	228.31
887.28	228.32
887.59	228.32
887.90	228.34
888.20	228.34
888.51	228.38
888.82	228.35
889.13	228.36
889.43	228.51
889.74	228.50
890.05	228.50
890.35	228.48
890.66	228.45
890.97	228.44
891.28	228.43
891.58	228.42
891.89	228.43
892.20	228.42
892.50	228.39
892.81	228.39
893.12	228.39
893.42	228.31
893.73	228.30
894.04	228.30
894.34	228.31
894.65	228.30
894.95	228.28
895.26	228.29
895.57	228.35
895.87	228.19
896.18	228.21
896.48	228.22
896.79	228.21
897.10	228.25
897.40	228.25
897.71	228.27
898.01	228.26
898.32	228.26
898.63	228.26
898.93	228.29
899.24	228.30
899.54	228.30
899.85	228.30
900.15	228.30
900.46	228.30
900.76	228.32
901.07	228.31
901.38	228.30
901.68	228.32
901.99	228.24
902.29	228.24
902.60	228.23
902.90	228.21
903.21	228.21
903.51	228.18
903.82	228.22
904.12	228.23
904.43	228.24
904.73	228.22
905.03	228.23
905.34	228.39
905.64	228.37
905.95	228.36
906.25	228.35
906.56	228.34
906.86	228.35
907.17	228.33
907.47	228.34
907.77	228.33
908.08	228.29
908.38	228.31
908.69	228.33
908.99	228.35
909.30	228.36
909.60	228.37
909.90	228.37
910.21	228.32
910.51	228.29
910.81	228.29
911.12	228.30
911.42	228.30
911.73	228.13
912.03	228.15
912.33	228.18
912.64	228.17
912.94	228.16
913.24	228.12
913.55	228.11
913.85	228.11
914.15	228.15
914.46	228.17
914.76	228.15
915.06	228.14
915.37	228.10
915.67	228.10
915.97	228.09
916.27	228.07
916.58	228.08
916.88	228.08
917.18	228.05
917.49	228.17
917.79	228.16
918.09	228.18
918.39	228.22
918.70	228.20
919.00	228.20
919.30	228.28
919.60	228.28
919.91	228.26
920.21	228.26
920.51	228.21
920.81	228.21
921.12	228.25
921.42	228.24
921.72	228.26
922.02	228.26
922.32	228.29
922.63	228.29
922.93	228.38
923.23	228.39
923.53	228.38
923.83	228.26
924.13	228.28
924.44	228.28
924.74	228.30
925.04	228.35
925.34	228.35
925.64	228.28
925.94	228.28
926.24	228.38
926.55	228.36
926.85	228.37
927.15	228.37
927.45	228.36
927.75	228.36
928.05	228.36
928.35	228.35
928.65	228.37
928.95	228.39
929.26	228.32
929.56	228.35
929.86	228.38
930.16	228.36
930.46	228.34
930.76	228.34
931.06	228.27
931.36	228.22
931.66	228.26
931.96	228.27
932.26	228.29
932.56	228.22
932.86	228.24
933.16	228.25
933.46	228.24
933.76	228.21
934.06	228.23
934.36	228.29
934.66	228.28
934.96	228.27
935.26	228.27
935.56	228.29
935.86	228.22
936.16	228.20
936.46	228.19
936.76	228.19
937.06	228.17
937.36	228.18
937.66	228.19
937.96	228.17
938.26	228.13
938.56	228.11
938.86	228.12
939.16	228.16
939.46	228.17
939.76	228.18
940.06	228.18
940.35	228.16
940.65	228.06
940.95	228.08
941.25	228.04
941.55	228.01
941.85	227.98
942.15	228.04
942.45	228.08
942.75	228.08
943.04	228.08
943.34	228.11
943.64	228.10
943.94	228.06
944.24	228.05
944.54	228.06
944.84	228.07
945.13	228.04
945.43	228.00
945.73	227.99
946.03	227.97
946.33	227.96
946.62	227.95
946.92	227.96
947.22	227.97
947.52	227.98
947.82	228.00
948.11	227.99
948.41	227.95
948.71	227.89
949.01	227.90
949.31	227.89
949.60	227.88
949.90	227.91
950.20	227.91
950.50	227.90
950.79	227.90
951.09	227.92
951.39	227.93
951.69	227.90
951.98	227.93
952.28	227.95
952.58	227.94
952.87	227.94
953.17	227.96
953.47	227.94
953.76	227.93
954.06	227.90
954.36	227.87
954.66	227.88
954.95	227.93
955.25	227.94
955.55	227.97
955.84	227.94
956.14	227.94
956.44	227.95
956.73	227.92
957.03	227.93
957.32	227.93
957.62	227.92
957.92	227.98
958.21	227.96
958.51	228.16
958.81	228.18
959.10	228.19
959.40	228.23
959.69	228.23
959.99	228.27
960.29	228.27
960.58	228.28
960.88	228.35
961.17	228.33
961.47	228.34
961.76	228.32
962.06	228.35
962.36	228.33
962.65	228.34
962.95	228.35
963.24	228.33
963.54	228.32
963.83	228.33
964.13	228.32
964.42	228.30
964.72	228.15
965.01	228.15
965.31	228.13
965.60	228.08
965.90	228.21
966.19	228.17
966.49	228.18
966.78	228.19
967.08	228.16
967.37	228.16
967.67	228.12
967.96	228.16
968.26	228.15
968.55	228.18
968.85	228.17
969.14	228.19
969.43	228.19
969.73	228.19
970.02	228.18
970.32	228.17
970.61	228.15
970.91	228.10
971.20	228.08
971.49	228.07
971.79	228.09
972.08	227.96
972.38	227.97
972.67	227.97
972.96	227.98
973.26	227.95
973.55	228.00
973.85	228.00
974.14	227.98
974.43	228.00
974.73	227.96
975.02	227.94
975.31	227.94
975.61	227.94
975.90	227.93
976.19	227.92
976.49	227.94
976.78	227.94
977.07	227.94
977.37	227.95
977.66	227.97
977.95	227.95
978.24	227.97
978.54	228.00
978.83	227.98
979.12	227.98
979.42	227.98
979.71	227.95
980.00	227.96
980.29	227.96
980.59	227.92
980.88	227.97
981.17	227.97
981.46	227.97
981.76	227.96
982.05	228.01
982.34	228.03
982.63	228.02
982.93	228.03
983.22	228.09
983.51	228.10
983.80	228.12
984.09	228.13
984.39	228.11
984.68	228.09
984.97	228.09
985.26	228.08
985.55	228.10
985.85	228.06
986.14	228.09
986.43	228.11
986.72	228.10
987.01	228.05
987.30	228.05
987.59	228.03
987.89	228.04
988.18	227.99
988.47	227.97
988.76	227.95
989.05	227.93
989.34	227.89
989.63	227.93
989.92	227.90
990.22	227.87
990.51	227.88
990.80	227.86
991.09	227.88
991.38	227.90
991.67	227.88
991.96	227.86
992.25	227.86
992.54	227.82
992.83	227.82
993.12	227.82
993.41	227.85
993.70	227.92
993.99	227.95
994.28	227.97
994.58	228.00
994.87	227.99
995.16	227.99
995.45	227.98
995.74	227.92
996.03	227.96
996.32	227.99
996.61	228.04
996.90	228.04
997.19	228.03
997.48	228.02
997.77	228.01
998.06	228.02
998.34	228.01
998.63	228.01
998.92	228.02
999.21	228.05
999.50	228.04
999.79	227.98
1000.08	227.97
1000.37	227.97
1000.66	227.95
1000.95	227.98
1001.24	227.99
1001.53	228.01
1001.82	228.02
1002.11	227.97
1002.40	227.99
1002.68	228.01
1002.97	228.14
1003.26	228.11
1003.55	228.09
1003.84	228.11
1004.13	228.16
1004.42	228.16
1004.71	228.17
1004.99	228.16
1005.28	228.20
1005.57	228.20
1005.86	228.19
1006.15	228.18
1006.44	228.15
1006.72	228.17
1007.01	228.14
1007.30	228.13
1007.59	228.12
1007.88	228.11
1008.17	228.12
1008.45	228.09
1008.74	228.01
1009.03	227.94
1009.32	227.95
1009.60	227.94
1009.89	227.93
1010.18	227.86
1010.47	227.85
1010.76	227.84
1011.04	227.84
1011.33	227.83
1011.62	227.84
1011.91	227.85
1012.19	227.85
1012.48	227.86
1012.77	227.86
1013.05	227.93
1013.34	227.93
1013.63	227.93
1013.92	227.95
1014.20	227.93
1014.49	227.93
1014.78	227.95
1015.06	227.90
1015.35	227.91
1015.64	227.93
1015.92	227.96
1016.21	227.96
1016.50	227.96
1016.78	227.98
1017.07	227.99
1017.36	227.94
1017.64	227.91
1017.93	227.93
1018.22	227.92
1018.50	227.92
1018.79	227.91
1019.08	227.85
1019.36	227.86
1019.65	227.84
1019.93	227.89
1020.22	227.92
1020.51	228.01
1020.79	227.98
1021.08	227.66
1021.36	227.75
1021.65	228.00
1021.94	227.99
1022.22	227.94
1022.51	227.61
1022.79	228.80
1023.08	228.25
1023.36	229.95
1023.65	227.24
>>>>>End Processed Spectral Data<<<<<
