SpectraSuite Data File
++++++++++++++++++++++++++++++++++++
Date: Tue Oct 06 17:08:03 EDT 2015
User: lab3
Dark Spectrum Present: No
Reference Spectrum Present: No
Number of Sampled Component Spectra: 1
Spectrometers: USB2E7196
Integration Time (usec): 66000 (USB2E7196)
Spectra Averaged: 1000 (USB2E7196)
Boxcar Smoothing: 10 (USB2E7196)
Correct for Electrical Dark: No (USB2E7196)
Strobe/Lamp Enabled: No (USB2E7196)
Correct for Detector Non-linearity: No (USB2E7196)
Correct for Stray Light: No (USB2E7196)
Number of Pixels in Processed Spectrum: 2048
>>>>>Begin Processed Spectral Data<<<<<
339.09	0.00
339.48	215.32
339.86	216.78
340.24	218.16
340.63	219.48
341.01	223.74
341.39	222.34
341.78	223.76
342.16	225.20
342.54	225.21
342.93	213.84
343.31	224.65
343.69	225.19
344.07	225.65
344.46	226.09
344.84	226.50
345.22	226.70
345.60	226.99
345.99	227.19
346.37	227.33
346.75	227.46
347.13	227.54
347.52	227.63
347.90	227.75
348.28	227.80
348.66	227.88
349.05	227.87
349.43	227.94
349.81	228.01
350.19	228.07
350.57	228.15
350.96	228.25
351.34	228.35
351.72	228.46
352.10	228.57
352.48	228.65
352.87	228.70
353.25	228.76
353.63	228.80
354.01	228.86
354.39	228.95
354.77	229.01
355.15	229.13
355.54	229.17
355.92	229.17
356.30	229.24
356.68	229.42
357.06	229.50
357.44	229.54
357.82	229.59
358.20	229.80
358.58	229.85
358.97	229.90
359.35	229.99
359.73	230.08
360.11	230.14
360.49	230.20
360.87	230.24
361.25	230.32
361.63	230.42
362.01	230.47
362.39	230.48
362.77	230.54
363.15	230.56
363.53	230.58
363.91	230.62
364.29	230.65
364.67	230.49
365.05	230.51
365.43	230.55
365.81	230.59
366.19	230.54
366.57	230.63
366.95	230.64
367.33	230.59
367.71	230.59
368.09	230.61
368.47	230.60
368.85	230.59
369.23	230.61
369.61	230.54
369.99	230.59
370.37	230.61
370.75	230.73
371.13	230.69
371.51	230.65
371.89	230.64
372.27	230.61
372.65	230.60
373.03	230.57
373.41	230.51
373.78	230.47
374.16	230.34
374.54	230.24
374.92	230.18
375.30	230.14
375.68	230.06
376.06	230.02
376.44	229.95
376.82	229.92
377.19	229.87
377.57	229.81
377.95	229.70
378.33	229.63
378.71	229.42
379.09	229.38
379.47	229.37
379.84	229.30
380.22	229.25
380.60	229.18
380.98	229.13
381.36	229.09
381.73	229.02
382.11	229.01
382.49	228.98
382.87	228.93
383.25	228.89
383.62	229.07
384.00	229.00
384.38	228.98
384.76	228.97
385.13	228.99
385.51	228.97
385.89	228.91
386.27	228.88
386.64	228.88
387.02	228.84
387.40	228.79
387.78	228.77
388.15	228.75
388.53	228.71
388.91	228.69
389.29	228.65
389.66	228.66
390.04	228.63
390.42	228.65
390.79	228.65
391.17	228.63
391.55	228.43
391.92	228.42
392.30	228.44
392.68	228.39
393.05	228.36
393.43	228.37
393.81	228.39
394.18	228.38
394.56	228.39
394.94	228.45
395.31	228.45
395.69	228.53
396.06	228.56
396.44	228.60
396.82	228.62
397.19	228.75
397.57	228.77
397.95	228.83
398.32	228.82
398.70	228.89
399.07	228.99
399.45	229.03
399.82	229.10
400.20	229.15
400.58	229.25
400.95	229.28
401.33	229.41
401.70	229.63
402.08	229.77
402.45	229.89
402.83	230.06
403.20	230.23
403.58	230.36
403.95	230.58
404.33	230.80
404.71	231.02
405.08	231.33
405.46	231.58
405.83	231.84
406.21	232.14
406.58	232.45
406.96	232.78
407.33	233.17
407.70	233.59
408.08	234.17
408.45	234.67
408.83	235.20
409.20	235.70
409.58	236.15
409.95	236.77
410.33	237.45
410.70	238.09
411.08	238.84
411.45	239.65
411.82	240.47
412.20	241.42
412.57	242.52
412.95	243.41
413.32	244.56
413.69	245.74
414.07	247.01
414.44	248.38
414.82	249.79
415.19	251.43
415.56	253.10
415.94	254.85
416.31	256.80
416.68	258.78
417.06	261.05
417.43	263.19
417.81	265.66
418.18	268.16
418.55	270.90
418.93	273.74
419.30	276.70
419.67	279.86
420.04	283.12
420.42	286.52
420.79	290.43
421.16	294.38
421.54	298.38
421.91	302.57
422.28	306.94
422.66	311.63
423.03	316.09
423.40	320.79
423.77	325.81
424.15	330.95
424.52	336.27
424.89	342.01
425.26	347.72
425.64	353.02
426.01	358.98
426.38	365.06
426.75	371.34
427.13	377.75
427.50	384.45
427.87	391.41
428.24	398.42
428.61	405.16
428.99	412.42
429.36	420.38
429.73	427.99
430.10	435.58
430.47	443.32
430.85	451.35
431.22	459.89
431.59	468.64
431.96	477.23
432.33	486.73
432.70	495.82
433.08	506.52
433.45	516.64
433.82	526.65
434.19	537.85
434.56	548.85
434.93	559.56
435.30	570.15
435.68	582.18
436.05	593.94
436.42	605.71
436.79	616.48
437.16	628.20
437.53	640.71
437.90	653.20
438.27	665.53
438.64	678.78
439.01	690.81
439.38	701.87
439.75	712.56
440.13	724.74
440.50	736.30
440.87	745.56
441.24	755.73
441.61	766.86
441.98	775.09
442.35	784.87
442.72	794.83
443.09	804.28
443.46	810.45
443.83	815.12
444.20	818.99
444.57	824.60
444.94	827.90
445.31	831.31
445.68	834.22
446.05	836.37
446.42	836.04
446.79	835.44
447.16	834.96
447.53	834.53
447.90	830.92
448.27	827.47
448.64	822.06
449.01	818.29
449.37	810.56
449.74	803.51
450.11	794.43
450.48	784.42
450.85	774.45
451.22	765.82
451.59	757.35
451.96	749.70
452.33	738.60
452.70	728.74
453.07	716.79
453.43	704.89
453.80	693.28
454.17	682.15
454.54	671.90
454.91	660.30
455.28	649.35
455.65	639.03
456.02	628.09
456.38	619.30
456.75	608.06
457.12	598.99
457.49	589.84
457.86	581.19
458.23	573.57
458.59	565.14
458.96	556.54
459.33	548.98
459.70	541.27
460.07	535.40
460.43	528.47
460.80	522.00
461.17	516.37
461.54	510.30
461.91	504.60
462.27	498.80
462.64	494.06
463.01	488.65
463.38	483.17
463.74	478.26
464.11	473.87
464.48	469.91
464.85	465.64
465.21	462.38
465.58	458.74
465.95	454.62
466.32	451.37
466.68	448.18
467.05	444.90
467.42	441.74
467.78	438.39
468.15	435.28
468.52	433.00
468.88	430.01
469.25	427.27
469.62	425.08
469.98	422.73
470.35	420.61
470.72	418.70
471.08	416.77
471.45	415.16
471.82	413.35
472.18	411.46
472.55	410.24
472.92	408.72
473.28	407.53
473.65	406.24
474.02	405.01
474.38	403.98
474.75	403.40
475.11	402.59
475.48	402.20
475.85	401.80
476.21	401.54
476.58	401.36
476.94	401.54
477.31	401.59
477.67	401.68
478.04	402.00
478.41	402.46
478.77	403.08
479.14	403.47
479.50	404.27
479.87	405.27
480.23	406.25
480.60	407.20
480.96	408.18
481.33	409.65
481.69	411.10
482.06	412.49
482.42	413.79
482.79	415.41
483.15	417.30
483.52	419.43
483.88	421.49
484.25	423.65
484.61	425.91
484.98	428.34
485.34	431.11
485.71	433.96
486.07	437.02
486.44	440.05
486.80	443.46
487.17	446.95
487.53	450.74
487.90	454.71
488.26	459.03
488.62	463.56
488.99	468.09
489.35	472.85
489.72	477.97
490.08	483.35
490.44	488.85
490.81	494.57
491.17	500.46
491.54	506.77
491.90	513.22
492.26	520.11
492.63	527.35
492.99	534.89
493.36	542.58
493.72	550.66
494.08	558.95
494.45	567.64
494.81	576.69
495.17	586.02
495.54	595.82
495.90	606.08
496.26	616.53
496.63	627.25
496.99	638.35
497.35	649.98
497.72	661.90
498.08	674.13
498.44	686.68
498.80	699.92
499.17	713.45
499.53	727.43
499.89	741.85
500.26	756.44
500.62	771.39
500.98	787.17
501.34	802.95
501.71	819.55
502.07	836.43
502.43	853.71
502.79	871.23
503.16	889.27
503.52	907.46
503.88	926.05
504.24	945.11
504.60	964.41
504.97	984.30
505.33	1004.63
505.69	1026.00
506.05	1047.56
506.41	1069.03
506.78	1090.59
507.14	1112.73
507.50	1135.27
507.86	1158.24
508.22	1181.34
508.59	1204.29
508.95	1228.34
509.31	1252.78
509.67	1277.84
510.03	1302.82
510.39	1327.67
510.75	1352.55
511.12	1377.84
511.48	1403.21
511.84	1428.57
512.20	1454.21
512.56	1480.86
512.92	1507.30
513.28	1533.10
513.64	1559.29
514.00	1585.76
514.37	1612.51
514.73	1639.21
515.09	1665.25
515.45	1691.56
515.81	1717.99
516.17	1744.12
516.53	1769.54
516.89	1794.85
517.25	1820.33
517.61	1845.64
517.97	1871.57
518.33	1896.82
518.69	1921.89
519.05	1947.38
519.41	1972.98
519.77	1998.55
520.13	2022.59
520.49	2046.69
520.85	2071.13
521.21	2094.93
521.57	2119.01
521.93	2142.04
522.29	2165.67
522.65	2189.06
523.01	2212.12
523.37	2234.53
523.73	2257.63
524.09	2280.39
524.45	2302.73
524.81	2324.43
525.17	2345.90
525.53	2366.59
525.89	2387.71
526.25	2408.41
526.61	2427.53
526.97	2446.60
527.33	2465.49
527.68	2484.07
528.04	2502.28
528.40	2519.17
528.76	2536.31
529.12	2552.89
529.48	2570.09
529.84	2584.61
530.20	2599.52
530.56	2613.55
530.91	2627.76
531.27	2641.36
531.63	2654.00
531.99	2666.36
532.35	2678.46
532.71	2690.11
533.07	2702.08
533.42	2712.14
533.78	2722.43
534.14	2733.55
534.50	2743.61
534.86	2754.18
535.21	2762.75
535.57	2771.04
535.93	2779.26
536.29	2785.68
536.65	2791.96
537.00	2796.72
537.36	2802.83
537.72	2807.97
538.08	2812.64
538.44	2816.14
538.79	2819.45
539.15	2821.50
539.51	2822.82
539.87	2822.93
540.22	2821.54
540.58	2820.34
540.94	2820.03
541.29	2818.53
541.65	2815.87
542.01	2812.71
542.37	2808.05
542.72	2804.87
543.08	2800.13
543.44	2795.54
543.79	2790.57
544.15	2784.91
544.51	2779.48
544.87	2772.98
545.22	2765.60
545.58	2758.10
545.94	2750.88
546.29	2742.17
546.65	2733.70
547.01	2725.35
547.36	2717.47
547.72	2709.81
548.07	2700.46
548.43	2689.97
548.79	2679.37
549.14	2668.97
549.50	2658.79
549.86	2647.69
550.21	2635.10
550.57	2623.66
550.92	2610.51
551.28	2597.85
551.64	2585.44
551.99	2572.71
552.35	2559.70
552.70	2546.58
553.06	2533.87
553.41	2520.73
553.77	2507.34
554.13	2494.15
554.48	2479.90
554.84	2464.86
555.19	2450.28
555.55	2435.75
555.90	2421.67
556.26	2407.81
556.61	2392.94
556.97	2377.12
557.32	2361.75
557.68	2346.74
558.03	2331.40
558.39	2317.06
558.74	2303.25
559.10	2287.71
559.45	2272.48
559.81	2257.84
560.16	2242.94
560.52	2227.83
560.87	2212.88
561.23	2197.66
561.58	2182.86
561.94	2167.73
562.29	2152.15
562.64	2136.71
563.00	2121.42
563.35	2106.30
563.71	2090.88
564.06	2075.63
564.42	2060.91
564.77	2046.26
565.12	2031.33
565.48	2016.28
565.83	2001.40
566.19	1986.52
566.54	1971.92
566.89	1956.78
567.25	1941.55
567.60	1927.10
567.96	1911.97
568.31	1895.75
568.66	1880.45
569.02	1865.65
569.37	1851.38
569.72	1837.76
570.08	1823.66
570.43	1809.03
570.78	1794.29
571.14	1779.36
571.49	1764.50
571.84	1749.93
572.20	1734.27
572.55	1719.41
572.90	1704.59
573.26	1689.78
573.61	1674.39
573.96	1659.52
574.31	1644.55
574.67	1629.45
575.02	1614.08
575.37	1598.78
575.72	1584.22
576.08	1569.41
576.43	1554.00
576.78	1538.76
577.13	1523.74
577.49	1509.00
577.84	1494.67
578.19	1479.88
578.54	1465.20
578.90	1450.44
579.25	1435.59
579.60	1421.84
579.95	1407.84
580.30	1393.77
580.66	1379.49
581.01	1365.29
581.36	1351.26
581.71	1337.95
582.06	1324.62
582.42	1311.14
582.77	1298.17
583.12	1285.34
583.47	1272.50
583.82	1259.84
584.17	1246.81
584.53	1233.84
584.88	1221.15
585.23	1208.33
585.58	1195.89
585.93	1183.35
586.28	1171.75
586.63	1160.01
586.98	1147.95
587.34	1136.22
587.69	1124.33
588.04	1112.81
588.39	1101.55
588.74	1089.85
589.09	1078.37
589.44	1066.63
589.79	1055.41
590.14	1044.22
590.49	1033.12
590.84	1022.29
591.19	1011.69
591.54	1001.22
591.89	990.35
592.25	979.85
592.60	969.25
592.95	958.81
593.30	948.67
593.65	938.26
594.00	928.16
594.35	918.87
594.70	908.92
595.05	899.59
595.40	890.04
595.75	880.35
596.10	871.31
596.45	862.20
596.80	853.44
597.15	844.70
597.50	835.98
597.85	827.47
598.19	818.93
598.54	810.42
598.89	802.37
599.24	794.74
599.59	786.89
599.94	779.64
600.29	772.37
600.64	764.99
600.99	757.52
601.34	750.26
601.69	742.53
602.04	735.63
602.39	728.65
602.74	721.83
603.08	715.20
603.43	708.50
603.78	701.78
604.13	695.15
604.48	688.57
604.83	682.21
605.18	675.90
605.53	669.74
605.87	663.55
606.22	657.44
606.57	651.27
606.92	645.03
607.27	638.83
607.62	632.83
607.96	627.09
608.31	621.72
608.66	616.31
609.01	611.11
609.36	605.90
609.70	600.63
610.05	595.41
610.40	590.31
610.75	585.24
611.10	580.37
611.44	575.50
611.79	570.74
612.14	565.90
612.49	561.11
612.83	556.60
613.18	552.14
613.53	547.70
613.88	543.38
614.22	539.39
614.57	535.28
614.92	531.26
615.27	527.36
615.61	523.41
615.96	519.46
616.31	515.56
616.65	511.77
617.00	508.08
617.35	504.44
617.70	500.82
618.04	497.30
618.39	493.88
618.74	490.69
619.08	487.44
619.43	484.32
619.78	481.18
620.12	478.00
620.47	475.00
620.82	472.05
621.16	469.12
621.51	466.25
621.85	463.40
622.20	460.63
622.55	457.80
622.89	455.01
623.24	452.40
623.59	449.83
623.93	447.31
624.28	444.93
624.62	442.77
624.97	440.60
625.32	438.34
625.66	436.05
626.01	433.71
626.35	431.53
626.70	429.27
627.04	427.20
627.39	425.10
627.73	423.07
628.08	421.11
628.43	419.17
628.77	417.12
629.12	415.21
629.46	413.38
629.81	411.67
630.15	409.88
630.50	408.12
630.84	406.39
631.19	404.70
631.53	403.07
631.88	401.26
632.22	399.57
632.57	398.12
632.91	396.64
633.26	395.24
633.60	393.84
633.95	392.53
634.29	391.09
634.64	389.71
634.98	388.23
635.32	386.89
635.67	385.68
636.01	384.46
636.36	383.28
636.70	382.19
637.05	380.94
637.39	379.84
637.73	378.72
638.08	377.68
638.42	376.66
638.77	375.54
639.11	374.38
639.45	373.24
639.80	372.05
640.14	370.95
640.49	369.82
640.83	368.71
641.17	367.63
641.52	366.59
641.86	365.58
642.20	364.70
642.55	363.66
642.89	362.63
643.23	361.67
643.58	360.81
643.92	359.79
644.26	358.86
644.61	357.96
644.95	357.04
645.29	356.03
645.64	355.01
645.98	354.09
646.32	353.28
646.66	352.42
647.01	351.57
647.35	350.81
647.69	350.02
648.04	349.30
648.38	348.52
648.72	347.76
649.06	347.00
649.41	346.18
649.75	345.43
650.09	344.71
650.43	343.97
650.78	343.20
651.12	342.46
651.46	341.74
651.80	341.03
652.14	340.35
652.49	339.75
652.83	339.07
653.17	338.36
653.51	337.69
653.85	337.10
654.20	336.48
654.54	335.76
654.88	335.07
655.22	334.43
655.56	333.76
655.90	333.12
656.25	332.48
656.59	331.88
656.93	331.30
657.27	330.77
657.61	330.16
657.95	329.61
658.29	329.03
658.64	328.47
658.98	327.86
659.32	327.26
659.66	326.69
660.00	326.19
660.34	325.66
660.68	325.09
661.02	324.45
661.36	323.87
661.70	323.32
662.05	322.79
662.39	322.27
662.73	321.80
663.07	321.39
663.41	320.94
663.75	320.42
664.09	319.91
664.43	319.29
664.77	318.78
665.11	318.21
665.45	317.69
665.79	317.20
666.13	316.68
666.47	316.16
666.81	315.61
667.15	315.02
667.49	314.56
667.83	314.14
668.17	313.69
668.51	313.26
668.85	312.86
669.19	312.50
669.53	311.97
669.87	311.44
670.21	310.88
670.55	310.36
670.89	309.97
671.23	309.53
671.57	309.14
671.91	308.77
672.25	308.43
672.58	308.09
672.92	307.64
673.26	307.30
673.60	306.92
673.94	306.55
674.28	306.20
674.62	305.81
674.96	305.38
675.30	304.99
675.64	304.55
675.97	304.10
676.31	303.61
676.65	303.20
676.99	302.89
677.33	302.47
677.67	302.08
678.01	301.61
678.34	301.19
678.68	300.81
679.02	300.36
679.36	299.90
679.70	299.44
680.04	299.06
680.37	298.65
680.71	298.27
681.05	297.92
681.39	297.50
681.73	297.04
682.06	296.63
682.40	296.24
682.74	295.87
683.08	295.57
683.42	295.20
683.75	294.86
684.09	294.38
684.43	294.00
684.77	293.57
685.10	293.19
685.44	292.79
685.78	292.38
686.12	291.97
686.45	291.57
686.79	291.15
687.13	290.74
687.46	290.31
687.80	289.89
688.14	289.41
688.48	288.99
688.81	288.58
689.15	288.22
689.49	287.78
689.82	287.35
690.16	286.82
690.50	286.37
690.83	285.92
691.17	285.48
691.51	285.06
691.84	284.69
692.18	284.26
692.52	283.81
692.85	283.38
693.19	283.03
693.52	282.60
693.86	282.16
694.20	281.74
694.53	281.32
694.87	280.87
695.21	280.45
695.54	280.03
695.88	279.59
696.21	279.11
696.55	278.69
696.88	278.27
697.22	277.85
697.56	277.46
697.89	277.02
698.23	276.62
698.56	276.19
698.90	275.79
699.23	275.37
699.57	274.99
699.90	274.59
700.24	274.13
700.58	273.75
700.91	273.42
701.25	273.20
701.58	272.92
701.92	272.59
702.25	272.24
702.59	271.85
702.92	271.49
703.26	271.11
703.59	270.73
703.93	270.49
704.26	270.14
704.60	269.75
704.93	269.38
705.26	269.01
705.60	268.69
705.93	268.27
706.27	267.97
706.60	267.66
706.94	267.36
707.27	266.97
707.61	266.62
707.94	266.22
708.27	265.71
708.61	265.26
708.94	264.87
709.28	264.50
709.61	264.16
709.94	263.82
710.28	263.51
710.61	263.20
710.95	262.73
711.28	262.53
711.61	262.19
711.95	261.92
712.28	261.57
712.61	261.23
712.95	261.02
713.28	260.77
713.61	260.41
713.95	260.04
714.28	259.75
714.61	259.42
714.95	259.12
715.28	258.81
715.61	258.53
715.95	258.26
716.28	257.96
716.61	257.70
716.95	257.40
717.28	257.11
717.61	256.82
717.94	256.56
718.28	256.15
718.61	255.88
718.94	255.57
719.27	255.32
719.61	255.08
719.94	254.77
720.27	254.41
720.60	254.16
720.94	253.91
721.27	253.66
721.60	253.45
721.93	253.19
722.27	252.99
722.60	252.74
722.93	252.48
723.26	252.25
723.59	251.99
723.93	251.78
724.26	251.57
724.59	251.33
724.92	251.11
725.25	250.94
725.59	250.72
725.92	250.52
726.25	250.30
726.58	250.06
726.91	249.84
727.24	249.64
727.57	249.42
727.91	249.18
728.24	249.00
728.57	248.77
728.90	248.58
729.23	248.33
729.56	248.22
729.89	248.02
730.22	247.82
730.55	247.62
730.89	247.43
731.22	247.23
731.55	247.03
731.88	246.84
732.21	246.61
732.54	246.41
732.87	246.23
733.20	246.07
733.53	245.91
733.86	245.74
734.19	245.56
734.52	245.43
734.85	245.39
735.18	245.19
735.51	245.08
735.84	244.95
736.17	244.84
736.50	244.58
736.83	244.62
737.16	244.46
737.49	244.31
737.82	244.13
738.15	244.00
738.48	243.84
738.81	243.67
739.14	243.51
739.47	243.35
739.80	243.19
740.13	243.05
740.46	242.88
740.79	242.69
741.12	242.52
741.45	242.33
741.78	242.07
742.11	241.96
742.44	241.76
742.77	241.62
743.10	241.45
743.43	241.29
743.75	240.96
744.08	241.09
744.41	240.94
744.74	240.80
745.07	240.61
745.40	240.51
745.73	240.45
746.06	240.33
746.39	240.22
746.71	240.09
747.04	239.94
747.37	239.80
747.70	239.70
748.03	239.59
748.36	239.51
748.68	239.38
749.01	239.22
749.34	239.11
749.67	238.99
750.00	238.90
750.33	238.92
750.65	238.82
750.98	238.45
751.31	238.35
751.64	238.25
751.97	238.25
752.29	238.13
752.62	237.94
752.95	237.83
753.28	237.69
753.60	237.58
753.93	237.50
754.26	237.42
754.59	237.26
754.91	237.14
755.24	237.02
755.57	236.93
755.90	236.83
756.22	236.71
756.55	236.57
756.88	236.43
757.20	236.22
757.53	236.07
757.86	235.96
758.19	235.88
758.51	235.79
758.84	235.62
759.17	235.50
759.49	235.43
759.82	235.42
760.15	235.37
760.47	235.27
760.80	235.14
761.13	235.08
761.45	235.00
761.78	234.92
762.11	234.84
762.43	234.73
762.76	234.65
763.08	234.59
763.41	234.54
763.74	234.48
764.06	234.39
764.39	234.32
764.71	234.25
765.04	234.15
765.37	234.06
765.69	233.98
766.02	233.90
766.34	233.81
766.67	233.67
767.00	233.61
767.32	233.65
767.65	233.70
767.97	233.62
768.30	233.57
768.62	233.50
768.95	233.42
769.27	233.36
769.60	233.33
769.92	233.23
770.25	233.13
770.57	233.04
770.90	232.99
771.22	232.91
771.55	232.86
771.87	232.81
772.20	232.75
772.52	232.85
772.85	233.02
773.17	232.96
773.50	232.91
773.82	232.84
774.15	232.69
774.47	232.52
774.80	232.45
775.12	232.40
775.45	232.36
775.77	232.31
776.09	232.27
776.42	232.22
776.74	232.23
777.07	232.20
777.39	232.15
777.72	232.11
778.04	232.10
778.36	232.04
778.69	232.00
779.01	231.98
779.33	231.78
779.66	231.53
779.98	231.49
780.31	231.45
780.63	231.49
780.95	231.48
781.28	231.44
781.60	231.39
781.92	231.36
782.25	231.33
782.57	231.31
782.89	231.25
783.22	231.21
783.54	231.15
783.86	231.12
784.19	231.07
784.51	231.10
784.83	231.04
785.16	231.01
785.48	230.98
785.80	230.96
786.12	230.94
786.45	230.92
786.77	230.91
787.09	230.88
787.42	230.77
787.74	230.74
788.06	230.72
788.38	230.70
788.71	230.65
789.03	230.63
789.35	230.62
789.67	230.57
789.99	230.55
790.32	230.51
790.64	230.51
790.96	230.66
791.28	230.57
791.61	230.54
791.93	230.53
792.25	230.49
792.57	230.58
792.89	230.53
793.21	230.52
793.54	230.46
793.86	230.42
794.18	230.42
794.50	230.36
794.82	230.35
795.14	230.35
795.47	230.37
795.79	230.34
796.11	230.28
796.43	230.26
796.75	230.24
797.07	230.23
797.39	230.19
797.71	230.02
798.04	230.00
798.36	230.00
798.68	229.98
799.00	229.97
799.32	229.87
799.64	229.89
799.96	229.88
800.28	229.89
800.60	229.88
800.92	229.87
801.24	229.85
801.56	229.84
801.89	229.81
802.21	229.79
802.53	229.75
802.85	229.77
803.17	229.83
803.49	229.79
803.81	229.76
804.13	229.74
804.45	229.70
804.77	229.70
805.09	229.68
805.41	229.64
805.73	229.59
806.05	229.52
806.37	229.49
806.69	229.44
807.01	229.43
807.33	229.42
807.65	229.35
807.97	229.42
808.28	229.38
808.60	229.35
808.92	229.31
809.24	229.40
809.56	229.35
809.88	229.29
810.20	229.27
810.52	229.30
810.84	229.27
811.16	229.24
811.48	229.21
811.80	229.26
812.12	229.26
812.43	229.28
812.75	229.29
813.07	229.25
813.39	229.26
813.71	229.21
814.03	229.18
814.35	229.17
814.67	229.08
814.98	229.07
815.30	229.06
815.62	229.02
815.94	228.89
816.26	228.91
816.58	228.86
816.89	228.87
817.21	228.81
817.53	228.81
817.85	228.81
818.17	228.80
818.48	228.72
818.80	228.74
819.12	228.69
819.44	228.64
819.76	228.62
820.07	228.60
820.39	228.59
820.71	228.59
821.03	228.59
821.34	228.56
821.66	228.58
821.98	228.58
822.30	228.56
822.61	228.66
822.93	228.62
823.25	228.62
823.57	228.59
823.88	228.60
824.20	228.59
824.52	228.60
824.83	228.60
825.15	228.57
825.47	228.54
825.79	228.54
826.10	228.53
826.42	228.52
826.74	228.52
827.05	228.50
827.37	228.50
827.69	228.49
828.00	228.50
828.32	228.49
828.64	228.47
828.95	228.55
829.27	228.49
829.58	228.49
829.90	228.51
830.22	228.52
830.53	228.47
830.85	228.44
831.17	228.38
831.48	228.37
831.80	228.38
832.11	228.37
832.43	228.35
832.75	228.34
833.06	228.44
833.38	228.39
833.69	228.37
834.01	228.37
834.32	228.36
834.64	228.33
834.96	228.31
835.27	228.30
835.59	228.24
835.90	228.21
836.22	228.19
836.53	228.15
836.85	228.12
837.16	228.30
837.48	228.30
837.79	228.37
838.11	228.37
838.42	228.37
838.74	228.38
839.05	228.35
839.37	228.34
839.68	228.23
840.00	228.22
840.31	228.25
840.63	228.23
840.94	228.21
841.26	228.19
841.57	228.19
841.88	228.20
842.20	228.16
842.51	228.13
842.83	228.14
843.14	228.29
843.46	228.29
843.77	228.18
844.08	228.17
844.40	228.10
844.71	228.08
845.03	228.05
845.34	228.03
845.65	228.03
845.97	228.03
846.28	228.04
846.60	228.05
846.91	228.02
847.22	228.00
847.54	228.04
847.85	228.05
848.16	228.02
848.48	227.99
848.79	228.07
849.10	228.10
849.42	228.10
849.73	227.93
850.04	227.93
850.36	227.86
850.67	227.89
850.98	227.89
851.30	227.92
851.61	227.91
851.92	227.90
852.23	227.95
852.55	227.95
852.86	227.96
853.17	227.97
853.49	228.01
853.80	228.04
854.11	228.04
854.42	228.06
854.74	228.03
855.05	228.03
855.36	227.94
855.67	227.92
855.99	227.92
856.30	228.14
856.61	228.14
856.92	228.14
857.23	228.13
857.55	228.12
857.86	228.11
858.17	228.13
858.48	228.10
858.79	228.06
859.11	228.07
859.42	228.05
859.73	228.02
860.04	228.00
860.35	227.95
860.66	227.89
860.98	227.87
861.29	227.92
861.60	227.90
861.91	227.95
862.22	227.92
862.53	227.89
862.84	227.67
863.16	227.70
863.47	227.67
863.78	227.64
864.09	227.64
864.40	227.65
864.71	227.64
865.02	227.66
865.33	227.63
865.64	227.59
865.95	227.60
866.27	227.71
866.58	227.69
866.89	227.71
867.20	227.70
867.51	227.67
867.82	227.65
868.13	227.70
868.44	227.66
868.75	227.69
869.06	227.70
869.37	227.73
869.68	227.69
869.99	227.71
870.30	227.74
870.61	227.75
870.92	227.72
871.23	227.70
871.54	227.72
871.85	227.77
872.16	227.79
872.47	227.78
872.78	227.68
873.09	227.70
873.40	227.69
873.71	227.70
874.02	227.72
874.33	227.71
874.64	227.68
874.95	227.70
875.26	227.66
875.56	227.65
875.87	227.64
876.18	227.63
876.49	227.80
876.80	227.78
877.11	227.75
877.42	227.77
877.73	227.78
878.04	227.75
878.35	227.74
878.66	227.74
878.96	227.75
879.27	227.74
879.58	227.73
879.89	227.72
880.20	227.76
880.51	227.75
880.82	227.75
881.12	227.75
881.43	227.72
881.74	227.69
882.05	227.68
882.36	227.69
882.67	227.72
882.97	227.52
883.28	227.50
883.59	227.50
883.90	227.50
884.21	227.53
884.51	227.51
884.82	227.48
885.13	227.48
885.44	227.47
885.74	227.46
886.05	227.46
886.36	227.46
886.67	227.41
886.98	227.50
887.28	227.51
887.59	227.51
887.90	227.52
888.20	227.53
888.51	227.57
888.82	227.53
889.13	227.54
889.43	227.69
889.74	227.69
890.05	227.67
890.35	227.65
890.66	227.61
890.97	227.62
891.28	227.60
891.58	227.60
891.89	227.61
892.20	227.60
892.50	227.58
892.81	227.57
893.12	227.57
893.42	227.48
893.73	227.48
894.04	227.49
894.34	227.50
894.65	227.50
894.95	227.47
895.26	227.49
895.57	227.56
895.87	227.39
896.18	227.42
896.48	227.44
896.79	227.45
897.10	227.46
897.40	227.47
897.71	227.49
898.01	227.47
898.32	227.47
898.63	227.46
898.93	227.47
899.24	227.49
899.54	227.48
899.85	227.47
900.15	227.46
900.46	227.45
900.76	227.47
901.07	227.46
901.38	227.46
901.68	227.48
901.99	227.39
902.29	227.40
902.60	227.38
902.90	227.37
903.21	227.36
903.51	227.36
903.82	227.40
904.12	227.40
904.43	227.42
904.73	227.43
905.03	227.43
905.34	227.61
905.64	227.58
905.95	227.58
906.25	227.58
906.56	227.56
906.86	227.56
907.17	227.55
907.47	227.57
907.77	227.55
908.08	227.51
908.38	227.52
908.69	227.53
908.99	227.55
909.30	227.56
909.60	227.57
909.90	227.56
910.21	227.50
910.51	227.48
910.81	227.47
911.12	227.48
911.42	227.49
911.73	227.30
912.03	227.32
912.33	227.36
912.64	227.34
912.94	227.34
913.24	227.32
913.55	227.29
913.85	227.28
914.15	227.32
914.46	227.34
914.76	227.34
915.06	227.33
915.37	227.29
915.67	227.28
915.97	227.28
916.27	227.26
916.58	227.27
916.88	227.27
917.18	227.25
917.49	227.36
917.79	227.35
918.09	227.38
918.39	227.42
918.70	227.40
919.00	227.42
919.30	227.50
919.60	227.49
919.91	227.48
920.21	227.48
920.51	227.43
920.81	227.42
921.12	227.42
921.42	227.42
921.72	227.44
922.02	227.44
922.32	227.47
922.63	227.48
922.93	227.57
923.23	227.58
923.53	227.58
923.83	227.46
924.13	227.48
924.44	227.47
924.74	227.50
925.04	227.53
925.34	227.53
925.64	227.45
925.94	227.45
926.24	227.56
926.55	227.54
926.85	227.57
927.15	227.57
927.45	227.59
927.75	227.60
928.05	227.61
928.35	227.60
928.65	227.63
928.95	227.64
929.26	227.56
929.56	227.60
929.86	227.62
930.16	227.60
930.46	227.59
930.76	227.59
931.06	227.51
931.36	227.47
931.66	227.48
931.96	227.50
932.26	227.51
932.56	227.42
932.86	227.44
933.16	227.43
933.46	227.42
933.76	227.40
934.06	227.43
934.36	227.47
934.66	227.46
934.96	227.43
935.26	227.43
935.56	227.45
935.86	227.40
936.16	227.36
936.46	227.35
936.76	227.34
937.06	227.31
937.36	227.32
937.66	227.33
937.96	227.33
938.26	227.30
938.56	227.28
938.86	227.29
939.16	227.33
939.46	227.34
939.76	227.36
940.06	227.36
940.35	227.32
940.65	227.23
940.95	227.24
941.25	227.20
941.55	227.17
941.85	227.16
942.15	227.21
942.45	227.26
942.75	227.25
943.04	227.26
943.34	227.31
943.64	227.29
943.94	227.26
944.24	227.26
944.54	227.27
944.84	227.27
945.13	227.24
945.43	227.20
945.73	227.19
946.03	227.17
946.33	227.14
946.62	227.13
946.92	227.13
947.22	227.13
947.52	227.15
947.82	227.16
948.11	227.14
948.41	227.10
948.71	227.05
949.01	227.06
949.31	227.06
949.60	227.03
949.90	227.05
950.20	227.06
950.50	227.06
950.79	227.05
951.09	227.07
951.39	227.08
951.69	227.06
951.98	227.09
952.28	227.10
952.58	227.10
952.87	227.09
953.17	227.13
953.47	227.12
953.76	227.11
954.06	227.08
954.36	227.07
954.66	227.06
954.95	227.12
955.25	227.14
955.55	227.14
955.84	227.11
956.14	227.12
956.44	227.13
956.73	227.10
957.03	227.11
957.32	227.11
957.62	227.11
957.92	227.15
958.21	227.13
958.51	227.33
958.81	227.35
959.10	227.37
959.40	227.41
959.69	227.42
959.99	227.44
960.29	227.45
960.58	227.45
960.88	227.51
961.17	227.49
961.47	227.50
961.76	227.49
962.06	227.52
962.36	227.49
962.65	227.50
962.95	227.52
963.24	227.51
963.54	227.51
963.83	227.51
964.13	227.50
964.42	227.48
964.72	227.33
965.01	227.34
965.31	227.33
965.60	227.28
965.90	227.38
966.19	227.34
966.49	227.36
966.78	227.35
967.08	227.33
967.37	227.33
967.67	227.30
967.96	227.34
968.26	227.33
968.55	227.35
968.85	227.34
969.14	227.33
969.43	227.33
969.73	227.32
970.02	227.31
970.32	227.31
970.61	227.28
970.91	227.23
971.20	227.19
971.49	227.18
971.79	227.20
972.08	227.07
972.38	227.09
972.67	227.07
972.96	227.11
973.26	227.06
973.55	227.13
973.85	227.11
974.14	227.10
974.43	227.12
974.73	227.08
975.02	227.06
975.31	227.06
975.61	227.06
975.90	227.04
976.19	227.02
976.49	227.03
976.78	227.06
977.07	227.06
977.37	227.08
977.66	227.09
977.95	227.07
978.24	227.08
978.54	227.12
978.83	227.11
979.12	227.09
979.42	227.09
979.71	227.04
980.00	227.04
980.29	227.04
980.59	227.00
980.88	227.04
981.17	227.04
981.46	227.05
981.76	227.05
982.05	227.11
982.34	227.13
982.63	227.13
982.93	227.11
983.22	227.15
983.51	227.15
983.80	227.18
984.09	227.19
984.39	227.19
984.68	227.16
984.97	227.17
985.26	227.15
985.55	227.17
985.85	227.14
986.14	227.17
986.43	227.18
986.72	227.18
987.01	227.14
987.30	227.15
987.59	227.14
987.89	227.14
988.18	227.09
988.47	227.07
988.76	227.05
989.05	227.05
989.34	227.02
989.63	227.08
989.92	227.05
990.22	227.02
990.51	227.01
990.80	227.00
991.09	227.01
991.38	227.05
991.67	227.03
991.96	227.03
992.25	227.03
992.54	227.00
992.83	227.01
993.12	227.00
993.41	227.03
993.70	227.10
993.99	227.14
994.28	227.17
994.58	227.21
994.87	227.19
995.16	227.18
995.45	227.18
995.74	227.11
996.03	227.13
996.32	227.17
996.61	227.22
996.90	227.22
997.19	227.20
997.48	227.20
997.77	227.18
998.06	227.19
998.34	227.17
998.63	227.17
998.92	227.18
999.21	227.21
999.50	227.21
999.79	227.15
1000.08	227.13
1000.37	227.13
1000.66	227.10
1000.95	227.14
1001.24	227.16
1001.53	227.19
1001.82	227.19
1002.11	227.15
1002.40	227.16
1002.68	227.19
1002.97	227.32
1003.26	227.31
1003.55	227.28
1003.84	227.30
1004.13	227.36
1004.42	227.35
1004.71	227.36
1004.99	227.36
1005.28	227.39
1005.57	227.36
1005.86	227.35
1006.15	227.34
1006.44	227.31
1006.72	227.35
1007.01	227.32
1007.30	227.32
1007.59	227.29
1007.88	227.29
1008.17	227.30
1008.45	227.26
1008.74	227.20
1009.03	227.11
1009.32	227.12
1009.60	227.11
1009.89	227.09
1010.18	227.02
1010.47	227.02
1010.76	227.01
1011.04	227.00
1011.33	227.00
1011.62	227.02
1011.91	227.03
1012.19	227.05
1012.48	227.05
1012.77	227.04
1013.05	227.10
1013.34	227.10
1013.63	227.10
1013.92	227.11
1014.20	227.10
1014.49	227.11
1014.78	227.13
1015.06	227.07
1015.35	227.07
1015.64	227.10
1015.92	227.14
1016.21	227.15
1016.50	227.16
1016.78	227.18
1017.07	227.18
1017.36	227.16
1017.64	227.13
1017.93	227.14
1018.22	227.12
1018.50	227.12
1018.79	227.13
1019.08	227.07
1019.36	227.07
1019.65	227.06
1019.93	227.11
1020.22	227.13
1020.51	227.22
1020.79	227.19
1021.08	226.93
1021.36	226.85
1021.65	227.27
1021.94	227.12
1022.22	227.10
1022.51	226.76
1022.79	228.03
1023.08	227.31
1023.36	229.25
1023.65	226.58
>>>>>End Processed Spectral Data<<<<<
