SpectraSuite Data File
++++++++++++++++++++++++++++++++++++
Date: Wed Oct 07 05:19:01 EDT 2015
User: lab3
Dark Spectrum Present: No
Reference Spectrum Present: No
Number of Sampled Component Spectra: 1
Spectrometers: USB2E7196
Integration Time (usec): 66000 (USB2E7196)
Spectra Averaged: 10000 (USB2E7196)
Boxcar Smoothing: 10 (USB2E7196)
Correct for Electrical Dark: No (USB2E7196)
Strobe/Lamp Enabled: No (USB2E7196)
Correct for Detector Non-linearity: No (USB2E7196)
Correct for Stray Light: No (USB2E7196)
Number of Pixels in Processed Spectrum: 2048
>>>>>Begin Processed Spectral Data<<<<<
339.09	0.00
339.48	213.21
339.86	214.67
340.24	216.02
340.63	217.45
341.01	221.64
341.39	220.17
341.78	221.76
342.16	223.04
342.54	223.29
342.93	211.83
343.31	222.53
343.69	223.07
344.07	223.54
344.46	223.99
344.84	224.40
345.22	224.60
345.60	224.88
345.99	225.08
346.37	225.23
346.75	225.35
347.13	225.44
347.52	225.54
347.90	225.67
348.28	225.72
348.66	225.81
349.05	225.80
349.43	225.88
349.81	225.95
350.19	226.02
350.57	226.11
350.96	226.21
351.34	226.33
351.72	226.44
352.10	226.57
352.48	226.64
352.87	226.69
353.25	226.76
353.63	226.82
354.01	226.88
354.39	226.96
354.77	227.04
355.15	227.16
355.54	227.20
355.92	227.21
356.30	227.29
356.68	227.47
357.06	227.56
357.44	227.60
357.82	227.65
358.20	227.88
358.58	227.93
358.97	228.00
359.35	228.10
359.73	228.19
360.11	228.24
360.49	228.31
360.87	228.36
361.25	228.43
361.63	228.54
362.01	228.60
362.39	228.64
362.77	228.69
363.15	228.71
363.53	228.74
363.91	228.79
364.29	228.80
364.67	228.65
365.05	228.68
365.43	228.72
365.81	228.76
366.19	228.71
366.57	228.79
366.95	228.79
367.33	228.75
367.71	228.74
368.09	228.77
368.47	228.77
368.85	228.76
369.23	228.78
369.61	228.70
369.99	228.74
370.37	228.74
370.75	228.86
371.13	228.83
371.51	228.78
371.89	228.77
372.27	228.75
372.65	228.74
373.03	228.70
373.41	228.66
373.78	228.61
374.16	228.48
374.54	228.38
374.92	228.33
375.30	228.29
375.68	228.22
376.06	228.17
376.44	228.12
376.82	228.08
377.19	228.03
377.57	227.98
377.95	227.87
378.33	227.80
378.71	227.59
379.09	227.55
379.47	227.54
379.84	227.47
380.22	227.40
380.60	227.32
380.98	227.27
381.36	227.22
381.73	227.15
382.11	227.14
382.49	227.11
382.87	227.04
383.25	227.00
383.62	227.18
384.00	227.10
384.38	227.07
384.76	227.07
385.13	227.08
385.51	227.05
385.89	227.00
386.27	226.97
386.64	226.97
387.02	226.92
387.40	226.87
387.78	226.86
388.15	226.84
388.53	226.82
388.91	226.80
389.29	226.77
389.66	226.78
390.04	226.73
390.42	226.75
390.79	226.75
391.17	226.74
391.55	226.52
391.92	226.52
392.30	226.54
392.68	226.49
393.05	226.47
393.43	226.48
393.81	226.50
394.18	226.49
394.56	226.50
394.94	226.56
395.31	226.57
395.69	226.64
396.06	226.69
396.44	226.74
396.82	226.76
397.19	226.90
397.57	226.92
397.95	227.00
398.32	226.99
398.70	227.07
399.07	227.16
399.45	227.23
399.82	227.30
400.20	227.36
400.58	227.46
400.95	227.48
401.33	227.62
401.70	227.85
402.08	228.00
402.45	228.13
402.83	228.31
403.20	228.48
403.58	228.62
403.95	228.84
404.33	229.07
404.71	229.29
405.08	229.61
405.46	229.86
405.83	230.15
406.21	230.46
406.58	230.80
406.96	231.14
407.33	231.52
407.70	231.96
408.08	232.55
408.45	233.08
408.83	233.64
409.20	234.16
409.58	234.63
409.95	235.28
410.33	235.98
410.70	236.65
411.08	237.43
411.45	238.27
411.82	239.11
412.20	240.07
412.57	241.22
412.95	242.13
413.32	243.31
413.69	244.53
414.07	245.82
414.44	247.23
414.82	248.66
415.19	250.35
415.56	252.06
415.94	253.86
416.31	255.85
416.68	257.86
417.06	260.18
417.43	262.36
417.81	264.86
418.18	267.41
418.55	270.20
418.93	273.09
419.30	276.12
419.67	279.33
420.04	282.63
420.42	286.08
420.79	290.05
421.16	294.07
421.54	298.13
421.91	302.38
422.28	306.79
422.66	311.54
423.03	316.06
423.40	320.79
423.77	325.86
424.15	331.04
424.52	336.42
424.89	342.25
425.26	348.02
425.64	353.38
426.01	359.40
426.38	365.55
426.75	371.88
427.13	378.35
427.50	385.12
427.87	392.16
428.24	399.24
428.61	406.03
428.99	413.35
429.36	421.41
429.73	429.10
430.10	436.77
430.47	444.63
430.85	452.74
431.22	461.36
431.59	470.23
431.96	478.90
432.33	488.53
432.70	497.69
433.08	508.53
433.45	518.76
433.82	528.88
434.19	540.23
434.56	551.41
434.93	562.24
435.30	572.99
435.68	585.18
436.05	597.11
436.42	609.08
436.79	620.01
437.16	631.90
437.53	644.59
437.90	657.28
438.27	669.75
438.64	683.26
439.01	695.53
439.38	706.78
439.75	717.67
440.13	730.10
440.50	741.91
440.87	751.38
441.24	761.79
441.61	773.20
441.98	781.67
442.35	791.71
442.72	801.93
443.09	811.68
443.46	818.07
443.83	822.95
444.20	827.03
444.57	832.84
444.94	836.36
445.31	840.02
445.68	843.19
446.05	845.63
446.42	845.47
446.79	845.07
447.16	844.76
447.53	844.52
447.90	841.01
448.27	837.71
448.64	832.38
449.01	828.77
449.37	821.03
449.74	814.01
450.11	804.90
450.48	794.88
450.85	784.80
451.22	776.17
451.59	767.64
451.96	759.92
452.33	748.74
452.70	738.74
453.07	726.62
453.43	714.52
453.80	702.69
454.17	691.36
454.54	680.91
454.91	669.11
455.28	657.94
455.65	647.41
456.02	636.21
456.38	627.21
456.75	615.69
457.12	606.40
457.49	597.03
457.86	588.15
458.23	580.32
458.59	571.71
458.96	562.87
459.33	555.11
459.70	547.21
460.07	541.18
460.43	534.08
460.80	527.45
461.17	521.69
461.54	515.47
461.91	509.61
462.27	503.66
462.64	498.80
463.01	493.26
463.38	487.67
463.74	482.64
464.11	478.16
464.48	474.11
464.85	469.75
465.21	466.41
465.58	462.70
465.95	458.50
466.32	455.17
466.68	451.91
467.05	448.62
467.42	445.42
467.78	441.99
468.15	438.83
468.52	436.51
468.88	433.42
469.25	430.61
469.62	428.38
469.98	425.98
470.35	423.83
470.72	421.87
471.08	419.90
471.45	418.24
471.82	416.40
472.18	414.46
472.55	413.20
472.92	411.64
473.28	410.42
473.65	409.10
474.02	407.82
474.38	406.74
474.75	406.09
475.11	405.21
475.48	404.79
475.85	404.31
476.21	404.03
476.58	403.82
476.94	403.96
477.31	403.97
477.67	404.00
478.04	404.26
478.41	404.66
478.77	405.24
479.14	405.58
479.50	406.34
479.87	407.33
480.23	408.29
480.60	409.20
480.96	410.11
481.33	411.54
481.69	412.93
482.06	414.30
482.42	415.55
482.79	417.12
483.15	418.97
483.52	421.07
483.88	423.06
484.25	425.19
484.61	427.41
484.98	429.82
485.34	432.53
485.71	435.36
486.07	438.40
486.44	441.39
486.80	444.76
487.17	448.20
487.53	451.95
487.90	455.87
488.26	460.14
488.62	464.66
488.99	469.16
489.35	473.90
489.72	479.00
490.08	484.36
490.44	489.83
490.81	495.53
491.17	501.40
491.54	507.71
491.90	514.14
492.26	521.04
492.63	528.26
492.99	535.81
493.36	543.53
493.72	551.64
494.08	559.98
494.45	568.72
494.81	577.86
495.17	587.25
495.54	597.16
495.90	607.52
496.26	618.05
496.63	628.93
496.99	640.17
497.35	651.95
497.72	664.05
498.08	676.48
498.44	689.25
498.80	702.72
499.17	716.47
499.53	730.70
499.89	745.36
500.26	760.28
500.62	775.54
500.98	791.72
501.34	807.92
501.71	824.87
502.07	842.19
502.43	859.98
502.79	878.03
503.16	896.54
503.52	915.28
503.88	934.46
504.24	954.11
504.60	974.02
504.97	994.58
505.33	1015.66
505.69	1037.83
506.05	1060.23
506.41	1082.61
506.78	1105.16
507.14	1128.25
507.50	1151.85
507.86	1175.82
508.22	1200.04
508.59	1224.15
508.95	1249.30
509.31	1275.03
509.67	1301.39
510.03	1327.75
510.39	1353.96
510.75	1380.28
511.12	1406.92
511.48	1433.93
511.84	1460.85
512.20	1488.16
512.56	1516.59
512.92	1544.84
513.28	1572.38
513.64	1600.40
514.00	1628.81
514.37	1657.48
514.73	1686.25
515.09	1714.32
515.45	1742.64
515.81	1771.28
516.17	1799.67
516.53	1827.39
516.89	1854.77
517.25	1882.47
517.61	1909.93
517.97	1938.12
518.33	1965.79
518.69	1993.39
519.05	2021.30
519.41	2049.41
519.77	2077.65
520.13	2104.28
520.49	2130.84
520.85	2157.90
521.21	2184.27
521.57	2210.99
521.93	2236.56
522.29	2262.85
522.65	2288.99
523.01	2314.85
523.37	2339.88
523.73	2365.69
524.09	2391.18
524.45	2416.55
524.81	2441.25
525.17	2465.84
525.53	2489.41
525.89	2513.49
526.25	2537.27
526.61	2559.22
526.97	2581.27
527.33	2602.99
527.68	2624.67
528.04	2646.00
528.40	2666.19
528.76	2686.39
529.12	2706.04
529.48	2726.50
529.84	2744.14
530.20	2762.05
530.56	2779.31
530.91	2796.68
531.27	2813.29
531.63	2829.01
531.99	2844.28
532.35	2859.38
532.71	2874.05
533.07	2889.25
533.42	2902.40
533.78	2915.65
534.14	2930.11
534.50	2943.40
534.86	2957.24
535.21	2968.65
535.57	2979.99
535.93	2990.91
536.29	3000.06
536.65	3009.10
537.00	3016.81
537.36	3025.73
537.72	3033.82
538.08	3041.43
538.44	3047.67
538.79	3053.82
539.15	3058.68
539.51	3062.75
539.87	3065.47
540.22	3066.48
540.58	3067.76
540.94	3069.68
541.29	3070.61
541.65	3070.08
542.01	3069.15
542.37	3066.47
542.72	3065.61
543.08	3062.87
543.44	3060.27
543.79	3057.64
544.15	3054.13
544.51	3050.44
544.87	3045.87
545.22	3040.25
545.58	3034.20
545.94	3028.55
546.29	3021.36
546.65	3014.28
547.01	3007.41
547.36	3001.19
547.72	2995.10
548.07	2987.20
548.43	2978.13
548.79	2968.68
549.14	2959.48
549.50	2950.44
549.86	2940.50
550.21	2928.73
550.57	2918.35
550.92	2906.29
551.28	2894.31
551.64	2882.70
551.99	2870.93
552.35	2858.61
552.70	2846.25
553.06	2834.42
553.41	2822.12
553.77	2809.49
554.13	2796.92
554.48	2783.18
554.84	2768.17
555.19	2753.61
555.55	2739.09
555.90	2725.14
556.26	2711.39
556.61	2696.55
556.97	2680.55
557.32	2665.02
557.68	2649.91
558.03	2634.35
558.39	2619.70
558.74	2605.83
559.10	2590.03
559.45	2574.14
559.81	2558.93
560.16	2543.26
560.52	2527.28
560.87	2511.64
561.23	2495.54
561.58	2480.07
561.94	2464.19
562.29	2447.87
562.64	2431.76
563.00	2415.64
563.35	2399.74
563.71	2383.42
564.06	2367.25
564.42	2351.64
564.77	2336.15
565.12	2320.25
565.48	2304.01
565.83	2287.85
566.19	2271.60
566.54	2255.53
566.89	2239.09
567.25	2222.74
567.60	2207.31
567.96	2191.26
568.31	2173.65
568.66	2156.80
569.02	2140.59
569.37	2124.94
569.72	2109.90
570.08	2094.41
570.43	2078.26
570.78	2061.86
571.14	2045.44
571.49	2028.98
571.84	2012.75
572.20	1995.22
572.55	1978.46
572.90	1961.92
573.26	1945.56
573.61	1928.50
573.96	1911.98
574.31	1895.32
574.67	1878.23
575.02	1860.78
575.37	1843.34
575.72	1826.84
576.08	1810.16
576.43	1792.52
576.78	1775.21
577.13	1758.13
577.49	1741.24
577.84	1724.91
578.19	1708.13
578.54	1691.31
578.90	1674.35
579.25	1657.22
579.60	1641.46
579.95	1625.36
580.30	1609.21
580.66	1592.76
581.01	1576.43
581.36	1560.12
581.71	1544.76
582.06	1529.47
582.42	1513.98
582.77	1498.88
583.12	1484.01
583.47	1469.22
583.82	1454.62
584.17	1439.40
584.53	1424.30
584.88	1409.55
585.23	1394.62
585.58	1380.14
585.93	1365.48
586.28	1351.91
586.63	1338.22
586.98	1323.97
587.34	1310.20
587.69	1296.25
588.04	1282.57
588.39	1269.18
588.74	1255.44
589.09	1241.80
589.44	1227.83
589.79	1214.56
590.14	1201.30
590.49	1188.07
590.84	1175.06
591.19	1162.46
591.54	1150.04
591.89	1137.26
592.25	1124.75
592.60	1112.14
592.95	1099.66
593.30	1087.68
593.65	1075.35
594.00	1063.34
594.35	1052.26
594.70	1040.45
595.05	1029.25
595.40	1017.94
595.75	1006.49
596.10	995.70
596.45	984.83
596.80	974.46
597.15	964.00
597.50	953.52
597.85	943.43
598.19	933.32
598.54	923.18
598.89	913.55
599.24	904.32
599.59	894.85
599.94	886.10
600.29	877.41
600.64	868.46
600.99	859.42
601.34	850.75
601.69	841.57
602.04	833.32
602.39	824.97
602.74	816.86
603.08	808.84
603.43	800.85
603.78	792.87
604.13	784.90
604.48	776.95
604.83	769.32
605.18	761.67
605.53	754.24
605.87	746.79
606.22	739.46
606.57	732.04
606.92	724.60
607.27	717.18
607.62	709.91
607.96	702.93
608.31	696.49
608.66	689.87
609.01	683.56
609.36	677.22
609.70	670.85
610.05	664.45
610.40	658.27
610.75	652.03
611.10	646.04
611.44	640.05
611.79	634.23
612.14	628.29
612.49	622.44
612.83	616.91
613.18	611.46
613.53	605.99
613.88	600.65
614.22	595.70
614.57	590.67
614.92	585.78
615.27	580.99
615.61	576.06
615.96	571.22
616.31	566.36
616.65	561.65
617.00	557.06
617.35	552.58
617.70	548.10
618.04	543.74
618.39	539.48
618.74	535.50
619.08	531.46
619.43	527.57
619.78	523.63
620.12	519.64
620.47	515.85
620.82	512.19
621.16	508.56
621.51	504.96
621.85	501.37
622.20	497.82
622.55	494.30
622.89	490.81
623.24	487.51
623.59	484.27
623.93	481.12
624.28	478.09
624.62	475.25
624.97	472.45
625.32	469.56
625.66	466.66
626.01	463.70
626.35	460.93
626.70	458.10
627.04	455.48
627.39	452.83
627.73	450.26
628.08	447.71
628.43	445.19
628.77	442.62
629.12	440.14
629.46	437.78
629.81	435.57
630.15	433.27
630.50	431.00
630.84	428.78
631.19	426.61
631.53	424.53
631.88	422.28
632.22	420.11
632.57	418.25
632.91	416.33
633.26	414.49
633.60	412.66
633.95	410.92
634.29	409.06
634.64	407.26
634.98	405.35
635.32	403.62
635.67	402.07
636.01	400.50
636.36	398.99
636.70	397.54
637.05	395.94
637.39	394.51
637.73	393.06
638.08	391.68
638.42	390.35
638.77	388.88
639.11	387.38
639.45	385.94
639.80	384.46
640.14	383.05
640.49	381.64
640.83	380.23
641.17	378.89
641.52	377.57
641.86	376.30
642.20	375.16
642.55	373.85
642.89	372.56
643.23	371.33
643.58	370.25
643.92	369.00
644.26	367.84
644.61	366.73
644.95	365.59
645.29	364.39
645.64	363.16
645.98	362.06
646.32	361.08
646.66	360.02
647.01	358.98
647.35	358.06
647.69	357.08
648.04	356.20
648.38	355.23
648.72	354.32
649.06	353.40
649.41	352.46
649.75	351.58
650.09	350.72
650.43	349.84
650.78	348.91
651.12	348.06
651.46	347.22
651.80	346.39
652.14	345.60
652.49	344.90
652.83	344.12
653.17	343.32
653.51	342.53
653.85	341.87
654.20	341.16
654.54	340.36
654.88	339.59
655.22	338.88
655.56	338.14
655.90	337.45
656.25	336.77
656.59	336.10
656.93	335.47
657.27	334.90
657.61	334.24
657.95	333.66
658.29	333.04
658.64	332.43
658.98	331.78
659.32	331.14
659.66	330.53
660.00	329.97
660.34	329.41
660.68	328.80
661.02	328.13
661.36	327.50
661.70	326.92
662.05	326.36
662.39	325.80
662.73	325.35
663.07	324.92
663.41	324.45
663.75	323.92
664.09	323.41
664.43	322.78
664.77	322.25
665.11	321.67
665.45	321.15
665.79	320.65
666.13	320.14
666.47	319.61
666.81	319.04
667.15	318.44
667.49	317.97
667.83	317.56
668.17	317.11
668.51	316.70
668.85	316.31
669.19	315.97
669.53	315.46
669.87	314.91
670.21	314.36
670.55	313.85
670.89	313.44
671.23	312.99
671.57	312.59
671.91	312.25
672.25	311.92
672.58	311.59
672.92	311.16
673.26	310.82
673.60	310.47
673.94	310.10
674.28	309.77
674.62	309.41
674.96	308.98
675.30	308.62
675.64	308.19
675.97	307.74
676.31	307.26
676.65	306.86
676.99	306.54
677.33	306.11
677.67	305.73
678.01	305.26
678.34	304.86
678.68	304.48
679.02	304.03
679.36	303.59
679.70	303.14
680.04	302.75
680.37	302.33
680.71	301.94
681.05	301.59
681.39	301.19
681.73	300.73
682.06	300.31
682.40	299.91
682.74	299.56
683.08	299.26
683.42	298.88
683.75	298.55
684.09	298.08
684.43	297.71
684.77	297.30
685.10	296.92
685.44	296.52
685.78	296.11
686.12	295.72
686.45	295.30
686.79	294.86
687.13	294.47
687.46	294.03
687.80	293.61
688.14	293.15
688.48	292.73
688.81	292.31
689.15	291.95
689.49	291.50
689.82	291.07
690.16	290.52
690.50	290.09
690.83	289.63
691.17	289.18
691.51	288.74
691.84	288.35
692.18	287.90
692.52	287.44
692.85	287.01
693.19	286.62
693.52	286.20
693.86	285.75
694.20	285.32
694.53	284.89
694.87	284.42
695.21	283.96
695.54	283.51
695.88	283.05
696.21	282.55
696.55	282.11
696.88	281.65
697.22	281.23
697.56	280.83
697.89	280.35
698.23	279.93
698.56	279.48
698.90	279.07
699.23	278.61
699.57	278.21
699.90	277.77
700.24	277.31
700.58	276.90
700.91	276.53
701.25	276.28
701.58	275.95
701.92	275.61
702.25	275.23
702.59	274.82
702.92	274.43
703.26	274.02
703.59	273.60
703.93	273.33
704.26	272.93
704.60	272.50
704.93	272.10
705.26	271.67
705.60	271.31
705.93	270.86
706.27	270.54
706.60	270.19
706.94	269.86
707.27	269.43
707.61	269.03
707.94	268.61
708.27	268.04
708.61	267.57
708.94	267.14
709.28	266.74
709.61	266.37
709.94	266.02
710.28	265.67
710.61	265.34
710.95	264.83
711.28	264.58
711.61	264.21
711.95	263.90
712.28	263.54
712.61	263.16
712.95	262.90
713.28	262.62
713.61	262.22
713.95	261.82
714.28	261.50
714.61	261.13
714.95	260.79
715.28	260.45
715.61	260.14
715.95	259.83
716.28	259.50
716.61	259.21
716.95	258.88
717.28	258.55
717.61	258.22
717.94	257.93
718.28	257.51
718.61	257.20
718.94	256.87
719.27	256.58
719.61	256.31
719.94	255.98
720.27	255.60
720.60	255.32
720.94	255.03
721.27	254.76
721.60	254.52
721.93	254.24
722.27	254.02
722.60	253.74
722.93	253.43
723.26	253.18
723.59	252.87
723.93	252.63
724.26	252.39
724.59	252.12
724.92	251.88
725.25	251.68
725.59	251.43
725.92	251.22
726.25	250.97
726.58	250.72
726.91	250.46
727.24	250.25
727.57	250.00
727.91	249.73
728.24	249.51
728.57	249.27
728.90	249.06
729.23	248.77
729.56	248.63
729.89	248.41
730.22	248.18
730.55	247.97
730.89	247.75
731.22	247.52
731.55	247.31
731.88	247.11
732.21	246.86
732.54	246.64
732.87	246.44
733.20	246.25
733.53	246.06
733.86	245.88
734.19	245.66
734.52	245.50
734.85	245.46
735.18	245.24
735.51	245.11
735.84	244.93
736.17	244.80
736.50	244.53
736.83	244.56
737.16	244.38
737.49	244.21
737.82	244.02
738.15	243.86
738.48	243.68
738.81	243.49
739.14	243.30
739.47	243.12
739.80	242.94
740.13	242.77
740.46	242.57
740.79	242.37
741.12	242.19
741.45	241.98
741.78	241.71
742.11	241.59
742.44	241.37
742.77	241.22
743.10	241.03
743.43	240.87
743.75	240.51
744.08	240.63
744.41	240.45
744.74	240.29
745.07	240.10
745.40	240.00
745.73	239.92
746.06	239.78
746.39	239.67
746.71	239.52
747.04	239.35
747.37	239.20
747.70	239.10
748.03	238.97
748.36	238.87
748.68	238.73
749.01	238.55
749.34	238.43
749.67	238.29
750.00	238.19
750.33	238.20
750.65	238.08
750.98	237.69
751.31	237.58
751.64	237.48
751.97	237.46
752.29	237.31
752.62	237.10
752.95	236.97
753.28	236.82
753.60	236.69
753.93	236.62
754.26	236.52
754.59	236.34
754.91	236.21
755.24	236.08
755.57	235.97
755.90	235.85
756.22	235.71
756.55	235.57
756.88	235.42
757.20	235.18
757.53	235.02
757.86	234.91
758.19	234.81
758.51	234.70
758.84	234.50
759.17	234.38
759.49	234.29
759.82	234.28
760.15	234.20
760.47	234.11
760.80	233.95
761.13	233.88
761.45	233.79
761.78	233.70
762.11	233.62
762.43	233.50
762.76	233.41
763.08	233.35
763.41	233.28
763.74	233.21
764.06	233.12
764.39	233.04
764.71	232.96
765.04	232.86
765.37	232.76
765.69	232.69
766.02	232.60
766.34	232.51
766.67	232.37
767.00	232.32
767.32	232.34
767.65	232.39
767.97	232.30
768.30	232.23
768.62	232.16
768.95	232.07
769.27	232.00
769.60	231.96
769.92	231.86
770.25	231.75
770.57	231.66
770.90	231.59
771.22	231.51
771.55	231.46
771.87	231.41
772.20	231.35
772.52	231.45
772.85	231.61
773.17	231.55
773.50	231.48
773.82	231.39
774.15	231.24
774.47	231.07
774.80	231.01
775.12	230.95
775.45	230.90
775.77	230.86
776.09	230.82
776.42	230.76
776.74	230.77
777.07	230.72
777.39	230.69
777.72	230.63
778.04	230.60
778.36	230.54
778.69	230.49
779.01	230.46
779.33	230.26
779.66	230.01
779.98	229.95
780.31	229.92
780.63	229.96
780.95	229.94
781.28	229.90
781.60	229.84
781.92	229.80
782.25	229.76
782.57	229.72
782.89	229.67
783.22	229.62
783.54	229.55
783.86	229.53
784.19	229.48
784.51	229.50
784.83	229.44
785.16	229.40
785.48	229.37
785.80	229.34
786.12	229.32
786.45	229.29
786.77	229.27
787.09	229.22
787.42	229.12
787.74	229.09
788.06	229.07
788.38	229.04
788.71	228.99
789.03	228.97
789.35	228.96
789.67	228.91
789.99	228.89
790.32	228.84
790.64	228.84
790.96	228.98
791.28	228.89
791.61	228.86
791.93	228.84
792.25	228.80
792.57	228.90
792.89	228.84
793.21	228.82
793.54	228.78
793.86	228.73
794.18	228.72
794.50	228.66
794.82	228.63
795.14	228.63
795.47	228.64
795.79	228.62
796.11	228.56
796.43	228.53
796.75	228.51
797.07	228.49
797.39	228.45
797.71	228.27
798.04	228.26
798.36	228.25
798.68	228.22
799.00	228.22
799.32	228.10
799.64	228.11
799.96	228.09
800.28	228.11
800.60	228.08
800.92	228.07
801.24	228.04
801.56	228.04
801.89	228.01
802.21	227.99
802.53	227.94
802.85	227.97
803.17	228.03
803.49	227.97
803.81	227.94
804.13	227.91
804.45	227.87
804.77	227.86
805.09	227.84
805.41	227.81
805.73	227.75
806.05	227.69
806.37	227.66
806.69	227.63
807.01	227.59
807.33	227.58
807.65	227.50
807.97	227.57
808.28	227.52
808.60	227.50
808.92	227.46
809.24	227.56
809.56	227.50
809.88	227.42
810.20	227.42
810.52	227.45
810.84	227.41
811.16	227.38
811.48	227.35
811.80	227.40
812.12	227.38
812.43	227.41
812.75	227.41
813.07	227.38
813.39	227.37
813.71	227.33
814.03	227.30
814.35	227.30
814.67	227.21
814.98	227.18
815.30	227.17
815.62	227.12
815.94	226.99
816.26	227.00
816.58	226.96
816.89	226.95
817.21	226.90
817.53	226.89
817.85	226.89
818.17	226.88
818.48	226.80
818.80	226.82
819.12	226.78
819.44	226.74
819.76	226.71
820.07	226.69
820.39	226.68
820.71	226.68
821.03	226.67
821.34	226.65
821.66	226.67
821.98	226.67
822.30	226.66
822.61	226.77
822.93	226.73
823.25	226.72
823.57	226.69
823.88	226.70
824.20	226.69
824.52	226.71
824.83	226.69
825.15	226.66
825.47	226.64
825.79	226.65
826.10	226.63
826.42	226.62
826.74	226.62
827.05	226.61
827.37	226.61
827.69	226.59
828.00	226.59
828.32	226.58
828.64	226.54
828.95	226.63
829.27	226.57
829.58	226.56
829.90	226.58
830.22	226.59
830.53	226.55
830.85	226.52
831.17	226.46
831.48	226.46
831.80	226.46
832.11	226.44
832.43	226.41
832.75	226.40
833.06	226.51
833.38	226.45
833.69	226.43
834.01	226.43
834.32	226.42
834.64	226.39
834.96	226.39
835.27	226.39
835.59	226.32
835.90	226.29
836.22	226.28
836.53	226.24
836.85	226.21
837.16	226.39
837.48	226.39
837.79	226.45
838.11	226.44
838.42	226.44
838.74	226.46
839.05	226.44
839.37	226.43
839.68	226.31
840.00	226.30
840.31	226.33
840.63	226.30
840.94	226.28
841.26	226.26
841.57	226.25
841.88	226.26
842.20	226.23
842.51	226.20
842.83	226.19
843.14	226.36
843.46	226.35
843.77	226.24
844.08	226.22
844.40	226.16
844.71	226.14
845.03	226.12
845.34	226.10
845.65	226.09
845.97	226.09
846.28	226.10
846.60	226.11
846.91	226.07
847.22	226.06
847.54	226.10
847.85	226.11
848.16	226.09
848.48	226.05
848.79	226.12
849.10	226.14
849.42	226.14
849.73	225.97
850.04	225.96
850.36	225.89
850.67	225.92
850.98	225.92
851.30	225.94
851.61	225.93
851.92	225.93
852.23	225.98
852.55	225.99
852.86	225.99
853.17	226.00
853.49	226.03
853.80	226.07
854.11	226.08
854.42	226.10
854.74	226.08
855.05	226.09
855.36	225.99
855.67	225.99
855.99	225.98
856.30	226.20
856.61	226.19
856.92	226.20
857.23	226.20
857.55	226.17
857.86	226.15
858.17	226.18
858.48	226.15
858.79	226.11
859.11	226.12
859.42	226.10
859.73	226.08
860.04	226.06
860.35	226.00
860.66	225.95
860.98	225.93
861.29	225.95
861.60	225.94
861.91	225.98
862.22	225.95
862.53	225.92
862.84	225.70
863.16	225.73
863.47	225.70
863.78	225.68
864.09	225.69
864.40	225.71
864.71	225.70
865.02	225.72
865.33	225.70
865.64	225.67
865.95	225.66
866.27	225.78
866.58	225.76
866.89	225.78
867.20	225.78
867.51	225.75
867.82	225.74
868.13	225.79
868.44	225.75
868.75	225.79
869.06	225.80
869.37	225.82
869.68	225.77
869.99	225.80
870.30	225.81
870.61	225.82
870.92	225.79
871.23	225.78
871.54	225.80
871.85	225.84
872.16	225.86
872.47	225.85
872.78	225.74
873.09	225.75
873.40	225.73
873.71	225.75
874.02	225.77
874.33	225.75
874.64	225.70
874.95	225.74
875.26	225.70
875.56	225.69
875.87	225.68
876.18	225.67
876.49	225.85
876.80	225.83
877.11	225.80
877.42	225.81
877.73	225.81
878.04	225.78
878.35	225.77
878.66	225.78
878.96	225.77
879.27	225.77
879.58	225.75
879.89	225.74
880.20	225.79
880.51	225.78
880.82	225.79
881.12	225.79
881.43	225.75
881.74	225.73
882.05	225.73
882.36	225.73
882.67	225.75
882.97	225.55
883.28	225.54
883.59	225.54
883.90	225.55
884.21	225.57
884.51	225.56
884.82	225.53
885.13	225.53
885.44	225.52
885.74	225.52
886.05	225.52
886.36	225.52
886.67	225.45
886.98	225.54
887.28	225.56
887.59	225.55
887.90	225.56
888.20	225.56
888.51	225.59
888.82	225.56
889.13	225.57
889.43	225.73
889.74	225.72
890.05	225.72
890.35	225.70
890.66	225.66
890.97	225.65
891.28	225.63
891.58	225.63
891.89	225.63
892.20	225.61
892.50	225.59
892.81	225.58
893.12	225.58
893.42	225.49
893.73	225.49
894.04	225.48
894.34	225.49
894.65	225.49
894.95	225.47
895.26	225.47
895.57	225.55
895.87	225.37
896.18	225.40
896.48	225.41
896.79	225.40
897.10	225.43
897.40	225.44
897.71	225.47
898.01	225.45
898.32	225.47
898.63	225.46
898.93	225.47
899.24	225.48
899.54	225.47
899.85	225.47
900.15	225.46
900.46	225.46
900.76	225.47
901.07	225.47
901.38	225.46
901.68	225.48
901.99	225.39
902.29	225.40
902.60	225.38
902.90	225.37
903.21	225.37
903.51	225.34
903.82	225.38
904.12	225.37
904.43	225.39
904.73	225.38
905.03	225.39
905.34	225.56
905.64	225.55
905.95	225.56
906.25	225.55
906.56	225.55
906.86	225.55
907.17	225.53
907.47	225.54
907.77	225.52
908.08	225.49
908.38	225.50
908.69	225.52
908.99	225.55
909.30	225.56
909.60	225.56
909.90	225.56
910.21	225.51
910.51	225.48
910.81	225.48
911.12	225.49
911.42	225.50
911.73	225.31
912.03	225.32
912.33	225.36
912.64	225.35
912.94	225.33
913.24	225.30
913.55	225.29
913.85	225.28
914.15	225.32
914.46	225.34
914.76	225.32
915.06	225.30
915.37	225.26
915.67	225.25
915.97	225.25
916.27	225.22
916.58	225.24
916.88	225.24
917.18	225.22
917.49	225.34
917.79	225.33
918.09	225.36
918.39	225.40
918.70	225.39
919.00	225.40
919.30	225.48
919.60	225.47
919.91	225.46
920.21	225.47
920.51	225.42
920.81	225.41
921.12	225.44
921.42	225.43
921.72	225.45
922.02	225.46
922.32	225.48
922.63	225.49
922.93	225.59
923.23	225.60
923.53	225.59
923.83	225.47
924.13	225.48
924.44	225.48
924.74	225.50
925.04	225.54
925.34	225.54
925.64	225.46
925.94	225.47
926.24	225.57
926.55	225.55
926.85	225.58
927.15	225.58
927.45	225.58
927.75	225.58
928.05	225.58
928.35	225.56
928.65	225.59
928.95	225.60
929.26	225.51
929.56	225.54
929.86	225.57
930.16	225.55
930.46	225.53
930.76	225.54
931.06	225.45
931.36	225.40
931.66	225.42
931.96	225.45
932.26	225.46
932.56	225.38
932.86	225.40
933.16	225.39
933.46	225.37
933.76	225.35
934.06	225.38
934.36	225.44
934.66	225.44
934.96	225.41
935.26	225.41
935.56	225.44
935.86	225.39
936.16	225.37
936.46	225.35
936.76	225.34
937.06	225.32
937.36	225.33
937.66	225.34
937.96	225.32
938.26	225.28
938.56	225.26
938.86	225.27
939.16	225.31
939.46	225.32
939.76	225.33
940.06	225.33
940.35	225.29
940.65	225.20
940.95	225.21
941.25	225.17
941.55	225.15
941.85	225.13
942.15	225.17
942.45	225.22
942.75	225.22
943.04	225.23
943.34	225.26
943.64	225.24
943.94	225.21
944.24	225.22
944.54	225.23
944.84	225.23
945.13	225.21
945.43	225.17
945.73	225.16
946.03	225.15
946.33	225.13
946.62	225.12
946.92	225.12
947.22	225.13
947.52	225.15
947.82	225.18
948.11	225.16
948.41	225.12
948.71	225.07
949.01	225.08
949.31	225.07
949.60	225.05
949.90	225.08
950.20	225.07
950.50	225.07
950.79	225.06
951.09	225.08
951.39	225.08
951.69	225.07
951.98	225.10
952.28	225.11
952.58	225.11
952.87	225.11
953.17	225.14
953.47	225.11
953.76	225.10
954.06	225.07
954.36	225.05
954.66	225.05
954.95	225.09
955.25	225.11
955.55	225.12
955.84	225.10
956.14	225.11
956.44	225.13
956.73	225.10
957.03	225.11
957.32	225.11
957.62	225.11
957.92	225.15
958.21	225.13
958.51	225.33
958.81	225.36
959.10	225.38
959.40	225.42
959.69	225.43
959.99	225.46
960.29	225.47
960.58	225.47
960.88	225.54
961.17	225.52
961.47	225.54
961.76	225.52
962.06	225.55
962.36	225.53
962.65	225.53
962.95	225.55
963.24	225.53
963.54	225.53
963.83	225.54
964.13	225.52
964.42	225.51
964.72	225.35
965.01	225.35
965.31	225.33
965.60	225.28
965.90	225.40
966.19	225.35
966.49	225.36
966.78	225.36
967.08	225.34
967.37	225.34
967.67	225.30
967.96	225.34
968.26	225.33
968.55	225.36
968.85	225.35
969.14	225.35
969.43	225.35
969.73	225.34
970.02	225.33
970.32	225.32
970.61	225.29
970.91	225.24
971.20	225.21
971.49	225.20
971.79	225.23
972.08	225.09
972.38	225.11
972.67	225.10
972.96	225.13
973.26	225.09
973.55	225.15
973.85	225.14
974.14	225.12
974.43	225.13
974.73	225.09
975.02	225.08
975.31	225.08
975.61	225.08
975.90	225.06
976.19	225.05
976.49	225.07
976.78	225.09
977.07	225.09
977.37	225.10
977.66	225.12
977.95	225.09
978.24	225.11
978.54	225.15
978.83	225.13
979.12	225.11
979.42	225.12
979.71	225.07
980.00	225.08
980.29	225.08
980.59	225.05
980.88	225.10
981.17	225.09
981.46	225.09
981.76	225.09
982.05	225.15
982.34	225.16
982.63	225.16
982.93	225.16
983.22	225.20
983.51	225.21
983.80	225.24
984.09	225.27
984.39	225.25
984.68	225.22
984.97	225.24
985.26	225.23
985.55	225.24
985.85	225.21
986.14	225.24
986.43	225.26
986.72	225.25
987.01	225.19
987.30	225.20
987.59	225.18
987.89	225.19
988.18	225.13
988.47	225.12
988.76	225.10
989.05	225.09
989.34	225.06
989.63	225.09
989.92	225.06
990.22	225.03
990.51	225.03
990.80	225.02
991.09	225.03
991.38	225.06
991.67	225.03
991.96	225.02
992.25	225.02
992.54	224.98
992.83	224.99
993.12	224.99
993.41	225.02
993.70	225.10
993.99	225.13
994.28	225.15
994.58	225.18
994.87	225.17
995.16	225.17
995.45	225.15
995.74	225.08
996.03	225.12
996.32	225.15
996.61	225.18
996.90	225.18
997.19	225.17
997.48	225.17
997.77	225.15
998.06	225.17
998.34	225.15
998.63	225.15
998.92	225.15
999.21	225.18
999.50	225.18
999.79	225.11
1000.08	225.10
1000.37	225.10
1000.66	225.07
1000.95	225.12
1001.24	225.14
1001.53	225.16
1001.82	225.16
1002.11	225.12
1002.40	225.13
1002.68	225.16
1002.97	225.29
1003.26	225.27
1003.55	225.25
1003.84	225.27
1004.13	225.32
1004.42	225.32
1004.71	225.32
1004.99	225.31
1005.28	225.35
1005.57	225.33
1005.86	225.32
1006.15	225.30
1006.44	225.27
1006.72	225.30
1007.01	225.26
1007.30	225.26
1007.59	225.24
1007.88	225.24
1008.17	225.26
1008.45	225.22
1008.74	225.14
1009.03	225.06
1009.32	225.06
1009.60	225.07
1009.89	225.05
1010.18	224.98
1010.47	224.97
1010.76	224.96
1011.04	224.96
1011.33	224.96
1011.62	224.97
1011.91	224.99
1012.19	224.99
1012.48	225.00
1012.77	225.00
1013.05	225.06
1013.34	225.06
1013.63	225.05
1013.92	225.07
1014.20	225.05
1014.49	225.07
1014.78	225.09
1015.06	225.03
1015.35	225.03
1015.64	225.05
1015.92	225.08
1016.21	225.09
1016.50	225.10
1016.78	225.12
1017.07	225.13
1017.36	225.09
1017.64	225.06
1017.93	225.08
1018.22	225.06
1018.50	225.05
1018.79	225.05
1019.08	224.98
1019.36	224.99
1019.65	224.98
1019.93	225.03
1020.22	225.05
1020.51	225.14
1020.79	225.12
1021.08	224.74
1021.36	224.77
1021.65	225.08
1021.94	224.89
1022.22	225.21
1022.51	224.71
1022.79	225.93
1023.08	225.32
1023.36	227.16
1023.65	224.65
>>>>>End Processed Spectral Data<<<<<
