SpectraSuite Data File
++++++++++++++++++++++++++++++++++++
Date: Wed Oct 07 05:41:33 EDT 2015
User: lab3
Dark Spectrum Present: No
Reference Spectrum Present: No
Number of Sampled Component Spectra: 1
Spectrometers: USB2E7196
Integration Time (usec): 66000 (USB2E7196)
Spectra Averaged: 10000 (USB2E7196)
Boxcar Smoothing: 10 (USB2E7196)
Correct for Electrical Dark: No (USB2E7196)
Strobe/Lamp Enabled: No (USB2E7196)
Correct for Detector Non-linearity: No (USB2E7196)
Correct for Stray Light: No (USB2E7196)
Number of Pixels in Processed Spectrum: 2048
>>>>>Begin Processed Spectral Data<<<<<
339.09	0.00
339.48	213.08
339.86	214.60
340.24	215.92
340.63	217.37
341.01	221.54
341.39	220.05
341.78	221.58
342.16	222.96
342.54	223.16
342.93	211.74
343.31	222.43
343.69	222.97
344.07	223.44
344.46	223.89
344.84	224.30
345.22	224.49
345.60	224.78
345.99	224.99
346.37	225.13
346.75	225.26
347.13	225.35
347.52	225.44
347.90	225.57
348.28	225.62
348.66	225.71
349.05	225.70
349.43	225.78
349.81	225.85
350.19	225.92
350.57	226.01
350.96	226.11
351.34	226.23
351.72	226.34
352.10	226.46
352.48	226.54
352.87	226.59
353.25	226.66
353.63	226.71
354.01	226.78
354.39	226.86
354.77	226.93
355.15	227.06
355.54	227.10
355.92	227.11
356.30	227.18
356.68	227.37
357.06	227.45
357.44	227.49
357.82	227.55
358.20	227.77
358.58	227.82
358.97	227.89
359.35	227.99
359.73	228.08
360.11	228.13
360.49	228.20
360.87	228.25
361.25	228.32
361.63	228.43
362.01	228.49
362.39	228.52
362.77	228.57
363.15	228.59
363.53	228.62
363.91	228.66
364.29	228.68
364.67	228.53
365.05	228.56
365.43	228.60
365.81	228.64
366.19	228.59
366.57	228.68
366.95	228.67
367.33	228.63
367.71	228.62
368.09	228.66
368.47	228.65
368.85	228.64
369.23	228.66
369.61	228.58
369.99	228.62
370.37	228.63
370.75	228.75
371.13	228.71
371.51	228.67
371.89	228.66
372.27	228.64
372.65	228.63
373.03	228.58
373.41	228.53
373.78	228.48
374.16	228.35
374.54	228.24
374.92	228.19
375.30	228.16
375.68	228.08
376.06	228.04
376.44	227.97
376.82	227.94
377.19	227.89
377.57	227.84
377.95	227.73
378.33	227.67
378.71	227.45
379.09	227.42
379.47	227.40
379.84	227.33
380.22	227.26
380.60	227.18
380.98	227.14
381.36	227.09
381.73	227.03
382.11	227.02
382.49	226.99
382.87	226.93
383.25	226.88
383.62	227.06
384.00	226.98
384.38	226.95
384.76	226.95
385.13	226.97
385.51	226.94
385.89	226.89
386.27	226.86
386.64	226.86
387.02	226.81
387.40	226.76
387.78	226.75
388.15	226.73
388.53	226.70
388.91	226.68
389.29	226.65
389.66	226.66
390.04	226.62
390.42	226.63
390.79	226.63
391.17	226.62
391.55	226.40
391.92	226.40
392.30	226.41
392.68	226.37
393.05	226.35
393.43	226.36
393.81	226.38
394.18	226.36
394.56	226.38
394.94	226.43
395.31	226.44
395.69	226.51
396.06	226.56
396.44	226.61
396.82	226.63
397.19	226.77
397.57	226.79
397.95	226.87
398.32	226.87
398.70	226.95
399.07	227.05
399.45	227.11
399.82	227.19
400.20	227.25
400.58	227.35
400.95	227.37
401.33	227.50
401.70	227.74
402.08	227.89
402.45	228.02
402.83	228.20
403.20	228.38
403.58	228.52
403.95	228.73
404.33	228.96
404.71	229.18
405.08	229.50
405.46	229.76
405.83	230.04
406.21	230.34
406.58	230.68
406.96	231.02
407.33	231.40
407.70	231.84
408.08	232.44
408.45	232.96
408.83	233.52
409.20	234.04
409.58	234.51
409.95	235.16
410.33	235.86
410.70	236.53
411.08	237.31
411.45	238.15
411.82	239.00
412.20	239.96
412.57	241.10
412.95	242.02
413.32	243.21
413.69	244.43
414.07	245.73
414.44	247.14
414.82	248.58
415.19	250.27
415.56	251.98
415.94	253.77
416.31	255.78
416.68	257.79
417.06	260.12
417.43	262.30
417.81	264.81
418.18	267.36
418.55	270.15
418.93	273.05
419.30	276.08
419.67	279.30
420.04	282.60
420.42	286.06
420.79	290.04
421.16	294.07
421.54	298.13
421.91	302.38
422.28	306.81
422.66	311.58
423.03	316.10
423.40	320.85
423.77	325.93
424.15	331.12
424.52	336.51
424.89	342.35
425.26	348.14
425.64	353.51
426.01	359.55
426.38	365.71
426.75	372.05
427.13	378.53
427.50	385.33
427.87	392.38
428.24	399.49
428.61	406.30
428.99	413.64
429.36	421.71
429.73	429.42
430.10	437.11
430.47	444.98
430.85	453.12
431.22	461.76
431.59	470.65
431.96	479.34
432.33	489.00
432.70	498.19
433.08	509.07
433.45	519.32
433.82	529.48
434.19	540.86
434.56	552.07
434.93	562.93
435.30	573.71
435.68	585.94
436.05	597.90
436.42	609.89
436.79	620.86
437.16	632.80
437.53	645.51
437.90	658.24
438.27	670.74
438.64	684.29
439.01	696.60
439.38	707.89
439.75	718.82
440.13	731.27
440.50	743.11
440.87	752.61
441.24	763.05
441.61	774.48
441.98	782.97
442.35	793.04
442.72	803.30
443.09	813.08
443.46	819.48
443.83	824.36
444.20	828.45
444.57	834.27
444.94	837.80
445.31	841.46
445.68	844.64
446.05	847.09
446.42	846.93
446.79	846.51
447.16	846.19
447.53	845.94
447.90	842.42
448.27	839.10
448.64	833.75
449.01	830.13
449.37	822.37
449.74	815.32
450.11	806.19
450.48	796.12
450.85	786.01
451.22	777.35
451.59	768.80
451.96	761.06
452.33	749.85
452.70	739.82
453.07	727.68
453.43	715.53
453.80	703.69
454.17	692.31
454.54	681.83
454.91	670.00
455.28	658.81
455.65	648.24
456.02	637.02
456.38	627.98
456.75	616.43
457.12	607.12
457.49	597.73
457.86	588.83
458.23	580.98
458.59	572.35
458.96	563.49
459.33	555.73
459.70	547.80
460.07	541.74
460.43	534.63
460.80	527.98
461.17	522.20
461.54	515.95
461.91	510.09
462.27	504.13
462.64	499.25
463.01	493.71
463.38	488.11
463.74	483.07
464.11	478.59
464.48	474.53
464.85	470.15
465.21	466.81
465.58	463.10
465.95	458.89
466.32	455.54
466.68	452.28
467.05	448.98
467.42	445.78
467.78	442.34
468.15	439.18
468.52	436.85
468.88	433.76
469.25	430.95
469.62	428.72
469.98	426.31
470.35	424.16
470.72	422.18
471.08	420.21
471.45	418.56
471.82	416.70
472.18	414.76
472.55	413.50
472.92	411.93
473.28	410.70
473.65	409.38
474.02	408.10
474.38	407.01
474.75	406.36
475.11	405.48
475.48	405.06
475.85	404.59
476.21	404.30
476.58	404.09
476.94	404.23
477.31	404.23
477.67	404.27
478.04	404.53
478.41	404.93
478.77	405.52
479.14	405.86
479.50	406.62
479.87	407.60
480.23	408.57
480.60	409.47
480.96	410.38
481.33	411.81
481.69	413.20
482.06	414.57
482.42	415.82
482.79	417.39
483.15	419.24
483.52	421.34
483.88	423.34
484.25	425.46
484.61	427.68
484.98	430.09
485.34	432.80
485.71	435.62
486.07	438.66
486.44	441.64
486.80	445.01
487.17	448.46
487.53	452.21
487.90	456.14
488.26	460.42
488.62	464.94
488.99	469.45
489.35	474.20
489.72	479.31
490.08	484.67
490.44	490.15
490.81	495.86
491.17	501.74
491.54	508.05
491.90	514.49
492.26	521.40
492.63	528.64
492.99	536.22
493.36	543.96
493.72	552.08
494.08	560.43
494.45	569.19
494.81	578.35
495.17	587.74
495.54	597.67
495.90	608.04
496.26	618.60
496.63	629.49
496.99	640.75
497.35	652.56
497.72	664.66
498.08	677.10
498.44	689.88
498.80	703.38
499.17	717.15
499.53	731.40
499.89	746.08
500.26	761.01
500.62	776.30
500.98	792.50
501.34	808.73
501.71	825.71
502.07	843.06
502.43	860.87
502.79	878.95
503.16	897.50
503.52	916.28
503.88	935.48
504.24	955.16
504.60	975.10
504.97	995.67
505.33	1016.79
505.69	1039.00
506.05	1061.45
506.41	1083.88
506.78	1106.47
507.14	1129.58
507.50	1153.23
507.86	1177.25
508.22	1201.50
508.59	1225.64
508.95	1250.83
509.31	1276.60
509.67	1303.01
510.03	1329.42
510.39	1355.68
510.75	1382.03
511.12	1408.71
511.48	1435.75
511.84	1462.71
512.20	1490.05
512.56	1518.53
512.92	1546.82
513.28	1574.41
513.64	1602.46
514.00	1630.91
514.37	1659.63
514.73	1688.43
515.09	1716.54
515.45	1744.87
515.81	1773.56
516.17	1801.99
516.53	1829.75
516.89	1857.15
517.25	1884.89
517.61	1912.39
517.97	1940.59
518.33	1968.29
518.69	1995.93
519.05	2023.88
519.41	2052.01
519.77	2080.32
520.13	2106.99
520.49	2133.59
520.85	2160.65
521.21	2187.04
521.57	2213.80
521.93	2239.39
522.29	2265.72
522.65	2291.88
523.01	2317.77
523.37	2342.83
523.73	2368.66
524.09	2394.17
524.45	2419.54
524.81	2444.26
525.17	2468.87
525.53	2492.45
525.89	2516.54
526.25	2540.32
526.61	2562.32
526.97	2584.40
527.33	2606.11
527.68	2627.81
528.04	2649.15
528.40	2669.38
528.76	2689.60
529.12	2709.24
529.48	2729.69
529.84	2747.33
530.20	2765.24
530.56	2782.52
530.91	2799.86
531.27	2816.47
531.63	2832.20
531.99	2847.48
532.35	2862.57
532.71	2877.23
533.07	2892.45
533.42	2905.60
533.78	2918.85
534.14	2933.29
534.50	2946.57
534.86	2960.40
535.21	2971.80
535.57	2983.12
535.93	2994.01
536.29	3003.17
536.65	3012.20
537.00	3019.94
537.36	3028.85
537.72	3036.91
538.08	3044.52
538.44	3050.76
538.79	3056.90
539.15	3061.78
539.51	3065.85
539.87	3068.58
540.22	3069.59
540.58	3070.85
540.94	3072.75
541.29	3073.69
541.65	3073.13
542.01	3072.20
542.37	3069.51
542.72	3068.64
543.08	3065.89
543.44	3063.29
543.79	3060.66
544.15	3057.15
544.51	3053.45
544.87	3048.87
545.22	3043.24
545.58	3037.11
545.94	3031.43
546.29	3024.25
546.65	3017.13
547.01	3010.22
547.36	3003.98
547.72	2997.85
548.07	2989.94
548.43	2980.85
548.79	2971.35
549.14	2962.13
549.50	2953.07
549.86	2943.11
550.21	2931.31
550.57	2920.89
550.92	2908.79
551.28	2896.78
551.64	2885.14
551.99	2873.33
552.35	2861.00
552.70	2848.62
553.06	2836.81
553.41	2824.52
553.77	2811.87
554.13	2799.29
554.48	2785.53
554.84	2770.49
555.19	2755.91
555.55	2741.37
555.90	2727.38
556.26	2713.63
556.61	2698.78
556.97	2682.76
557.32	2667.17
557.68	2652.06
558.03	2636.48
558.39	2621.80
558.74	2607.89
559.10	2592.07
559.45	2576.15
559.81	2560.90
560.16	2545.21
560.52	2529.20
560.87	2513.55
561.23	2497.40
561.58	2481.89
561.94	2466.00
562.29	2449.66
562.64	2433.52
563.00	2417.37
563.35	2401.44
563.71	2385.10
564.06	2368.91
564.42	2353.27
564.77	2337.79
565.12	2321.88
565.48	2305.61
565.83	2289.44
566.19	2273.18
566.54	2257.07
566.89	2240.62
567.25	2224.25
567.60	2208.78
567.96	2192.74
568.31	2175.08
568.66	2158.20
569.02	2141.97
569.37	2126.31
569.72	2111.23
570.08	2095.72
570.43	2079.55
570.78	2063.14
571.14	2046.71
571.49	2030.23
571.84	2013.95
572.20	1996.40
572.55	1979.63
572.90	1963.04
573.26	1946.65
573.61	1929.56
573.96	1913.04
574.31	1896.35
574.67	1879.25
575.02	1861.80
575.37	1844.32
575.72	1827.82
576.08	1811.12
576.43	1793.44
576.78	1776.10
577.13	1758.99
577.49	1742.08
577.84	1725.74
578.19	1708.95
578.54	1692.09
578.90	1675.11
579.25	1657.97
579.60	1642.18
579.95	1626.05
580.30	1609.89
580.66	1593.42
581.01	1577.07
581.36	1560.73
581.71	1545.35
582.06	1530.02
582.42	1514.52
582.77	1499.41
583.12	1484.51
583.47	1469.71
583.82	1455.11
584.17	1439.87
584.53	1424.75
584.88	1409.98
585.23	1395.04
585.58	1380.54
585.93	1365.84
586.28	1352.24
586.63	1338.54
586.98	1324.29
587.34	1310.49
587.69	1296.53
588.04	1282.83
588.39	1269.42
588.74	1255.68
589.09	1242.03
589.44	1228.04
589.79	1214.75
590.14	1201.47
590.49	1188.23
590.84	1175.20
591.19	1162.60
591.54	1150.18
591.89	1137.39
592.25	1124.89
592.60	1112.25
592.95	1099.76
593.30	1087.79
593.65	1075.45
594.00	1063.44
594.35	1052.32
594.70	1040.51
595.05	1029.31
595.40	1018.02
595.75	1006.56
596.10	995.76
596.45	984.88
596.80	974.51
597.15	964.06
597.50	953.56
597.85	943.48
598.19	933.37
598.54	923.21
598.89	913.57
599.24	904.33
599.59	894.84
599.94	886.09
600.29	877.40
600.64	868.45
600.99	859.41
601.34	850.74
601.69	841.56
602.04	833.32
602.39	824.97
602.74	816.84
603.08	808.83
603.43	800.83
603.78	792.86
604.13	784.88
604.48	776.92
604.83	769.29
605.18	761.64
605.53	754.20
605.87	746.75
606.22	739.43
606.57	732.03
606.92	724.60
607.27	717.18
607.62	709.91
607.96	702.92
608.31	696.47
608.66	689.84
609.01	683.53
609.36	677.18
609.70	670.81
610.05	664.42
610.40	658.24
610.75	652.00
611.10	646.00
611.44	640.01
611.79	634.19
612.14	628.25
612.49	622.40
612.83	616.85
613.18	611.38
613.53	605.91
613.88	600.56
614.22	595.61
614.57	590.59
614.92	585.70
615.27	580.92
615.61	575.98
615.96	571.15
616.31	566.29
616.65	561.58
617.00	557.00
617.35	552.51
617.70	548.03
618.04	543.67
618.39	539.41
618.74	535.42
619.08	531.38
619.43	527.49
619.78	523.56
620.12	519.57
620.47	515.79
620.82	512.12
621.16	508.48
621.51	504.89
621.85	501.29
622.20	497.74
622.55	494.22
622.89	490.74
623.24	487.44
623.59	484.20
623.93	481.04
624.28	478.00
624.62	475.17
624.97	472.37
625.32	469.48
625.66	466.58
626.01	463.62
626.35	460.85
626.70	458.03
627.04	455.42
627.39	452.78
627.73	450.20
628.08	447.65
628.43	445.14
628.77	442.55
629.12	440.06
629.46	437.70
629.81	435.49
630.15	433.19
630.50	430.92
630.84	428.70
631.19	426.52
631.53	424.45
631.88	422.20
632.22	420.02
632.57	418.16
632.91	416.25
633.26	414.41
633.60	412.58
633.95	410.84
634.29	408.96
634.64	407.15
634.98	405.24
635.32	403.52
635.67	401.96
636.01	400.39
636.36	398.88
636.70	397.44
637.05	395.83
637.39	394.39
637.73	392.95
638.08	391.57
638.42	390.23
638.77	388.76
639.11	387.25
639.45	385.81
639.80	384.33
640.14	382.91
640.49	381.50
640.83	380.08
641.17	378.75
641.52	377.42
641.86	376.15
642.20	375.01
642.55	373.70
642.89	372.40
643.23	371.18
643.58	370.09
643.92	368.84
644.26	367.68
644.61	366.57
644.95	365.42
645.29	364.23
645.64	363.00
645.98	361.90
646.32	360.92
646.66	359.87
647.01	358.84
647.35	357.92
647.69	356.94
648.04	356.06
648.38	355.09
648.72	354.18
649.06	353.26
649.41	352.33
649.75	351.45
650.09	350.59
650.43	349.72
650.78	348.79
651.12	347.94
651.46	347.10
651.80	346.28
652.14	345.50
652.49	344.79
652.83	344.01
653.17	343.21
653.51	342.41
653.85	341.76
654.20	341.05
654.54	340.23
654.88	339.47
655.22	338.77
655.56	338.03
655.90	337.34
656.25	336.66
656.59	335.99
656.93	335.36
657.27	334.79
657.61	334.13
657.95	333.54
658.29	332.92
658.64	332.32
658.98	331.66
659.32	331.02
659.66	330.41
660.00	329.85
660.34	329.29
660.68	328.68
661.02	328.00
661.36	327.37
661.70	326.80
662.05	326.23
662.39	325.67
662.73	325.21
663.07	324.78
663.41	324.32
663.75	323.80
664.09	323.28
664.43	322.66
664.77	322.13
665.11	321.55
665.45	321.03
665.79	320.53
666.13	320.02
666.47	319.49
666.81	318.92
667.15	318.32
667.49	317.85
667.83	317.45
668.17	317.00
668.51	316.60
668.85	316.21
669.19	315.87
669.53	315.36
669.87	314.82
670.21	314.27
670.55	313.75
670.89	313.34
671.23	312.89
671.57	312.49
671.91	312.15
672.25	311.81
672.58	311.48
672.92	311.06
673.26	310.72
673.60	310.37
673.94	310.01
674.28	309.68
674.62	309.31
674.96	308.88
675.30	308.53
675.64	308.10
675.97	307.65
676.31	307.17
676.65	306.77
676.99	306.45
677.33	306.02
677.67	305.62
678.01	305.15
678.34	304.75
678.68	304.37
679.02	303.92
679.36	303.47
679.70	303.03
680.04	302.63
680.37	302.21
680.71	301.82
681.05	301.47
681.39	301.07
681.73	300.62
682.06	300.19
682.40	299.80
682.74	299.44
683.08	299.14
683.42	298.75
683.75	298.41
684.09	297.95
684.43	297.58
684.77	297.17
685.10	296.80
685.44	296.40
685.78	295.99
686.12	295.60
686.45	295.18
686.79	294.75
687.13	294.35
687.46	293.91
687.80	293.50
688.14	293.03
688.48	292.61
688.81	292.19
689.15	291.83
689.49	291.39
689.82	290.95
690.16	290.41
690.50	289.97
690.83	289.51
691.17	289.06
691.51	288.63
691.84	288.23
692.18	287.78
692.52	287.32
692.85	286.89
693.19	286.51
693.52	286.08
693.86	285.63
694.20	285.20
694.53	284.77
694.87	284.30
695.21	283.85
695.54	283.40
695.88	282.93
696.21	282.43
696.55	281.99
696.88	281.53
697.22	281.11
697.56	280.70
697.89	280.22
698.23	279.80
698.56	279.35
698.90	278.94
699.23	278.48
699.57	278.08
699.90	277.65
700.24	277.18
700.58	276.78
700.91	276.41
701.25	276.15
701.58	275.83
701.92	275.48
702.25	275.10
702.59	274.69
702.92	274.30
703.26	273.88
703.59	273.46
703.93	273.20
704.26	272.80
704.60	272.38
704.93	271.97
705.26	271.55
705.60	271.19
705.93	270.73
706.27	270.41
706.60	270.06
706.94	269.74
707.27	269.31
707.61	268.91
707.94	268.48
708.27	267.92
708.61	267.45
708.94	267.02
709.28	266.62
709.61	266.24
709.94	265.88
710.28	265.54
710.61	265.21
710.95	264.69
711.28	264.44
711.61	264.08
711.95	263.77
712.28	263.40
712.61	263.02
712.95	262.77
713.28	262.48
713.61	262.08
713.95	261.68
714.28	261.37
714.61	261.00
714.95	260.66
715.28	260.32
715.61	260.00
715.95	259.70
716.28	259.36
716.61	259.07
716.95	258.74
717.28	258.42
717.61	258.09
717.94	257.80
718.28	257.38
718.61	257.07
718.94	256.73
719.27	256.45
719.61	256.17
719.94	255.85
720.27	255.46
720.60	255.18
720.94	254.89
721.27	254.62
721.60	254.37
721.93	254.09
722.27	253.87
722.60	253.60
722.93	253.29
723.26	253.05
723.59	252.74
723.93	252.50
724.26	252.25
724.59	251.99
724.92	251.75
725.25	251.55
725.59	251.30
725.92	251.08
726.25	250.83
726.58	250.59
726.91	250.33
727.24	250.12
727.57	249.87
727.91	249.61
728.24	249.39
728.57	249.15
728.90	248.94
729.23	248.65
729.56	248.52
729.89	248.30
730.22	248.07
730.55	247.85
730.89	247.63
731.22	247.40
731.55	247.19
731.88	246.98
732.21	246.74
732.54	246.52
732.87	246.32
733.20	246.14
733.53	245.94
733.86	245.76
734.19	245.55
734.52	245.39
734.85	245.34
735.18	245.13
735.51	244.99
735.84	244.81
736.17	244.69
736.50	244.41
736.83	244.44
737.16	244.26
737.49	244.10
737.82	243.91
738.15	243.75
738.48	243.57
738.81	243.38
739.14	243.19
739.47	243.00
739.80	242.82
740.13	242.66
740.46	242.45
740.79	242.25
741.12	242.07
741.45	241.87
741.78	241.59
742.11	241.47
742.44	241.24
742.77	241.10
743.10	240.90
743.43	240.74
743.75	240.38
744.08	240.50
744.41	240.32
744.74	240.16
745.07	239.98
745.40	239.87
745.73	239.80
746.06	239.66
746.39	239.55
746.71	239.39
747.04	239.23
747.37	239.09
747.70	238.98
748.03	238.85
748.36	238.75
748.68	238.61
749.01	238.42
749.34	238.30
749.67	238.17
750.00	238.06
750.33	238.08
750.65	237.96
750.98	237.57
751.31	237.46
751.64	237.35
751.97	237.33
752.29	237.19
752.62	236.98
752.95	236.85
753.28	236.70
753.60	236.58
753.93	236.50
754.26	236.40
754.59	236.22
754.91	236.09
755.24	235.95
755.57	235.84
755.90	235.73
756.22	235.59
756.55	235.45
756.88	235.29
757.20	235.05
757.53	234.89
757.86	234.78
758.19	234.68
758.51	234.56
758.84	234.36
759.17	234.25
759.49	234.16
759.82	234.14
760.15	234.06
760.47	233.97
760.80	233.82
761.13	233.75
761.45	233.66
761.78	233.57
762.11	233.48
762.43	233.37
762.76	233.27
763.08	233.21
763.41	233.14
763.74	233.07
764.06	232.99
764.39	232.91
764.71	232.82
765.04	232.72
765.37	232.62
765.69	232.55
766.02	232.47
766.34	232.37
766.67	232.23
767.00	232.18
767.32	232.20
767.65	232.25
767.97	232.15
768.30	232.09
768.62	232.02
768.95	231.93
769.27	231.86
769.60	231.82
769.92	231.72
770.25	231.62
770.57	231.52
770.90	231.46
771.22	231.38
771.55	231.33
771.87	231.28
772.20	231.22
772.52	231.31
772.85	231.47
773.17	231.42
773.50	231.35
773.82	231.26
774.15	231.12
774.47	230.94
774.80	230.87
775.12	230.82
775.45	230.76
775.77	230.72
776.09	230.68
776.42	230.63
776.74	230.64
777.07	230.59
777.39	230.56
777.72	230.50
778.04	230.47
778.36	230.41
778.69	230.36
779.01	230.33
779.33	230.12
779.66	229.87
779.98	229.82
780.31	229.79
780.63	229.82
780.95	229.81
781.28	229.77
781.60	229.72
781.92	229.68
782.25	229.64
782.57	229.60
782.89	229.54
783.22	229.49
783.54	229.42
783.86	229.40
784.19	229.35
784.51	229.37
784.83	229.31
785.16	229.28
785.48	229.24
785.80	229.21
786.12	229.19
786.45	229.16
786.77	229.14
787.09	229.09
787.42	228.99
787.74	228.96
788.06	228.94
788.38	228.91
788.71	228.86
789.03	228.84
789.35	228.83
789.67	228.78
789.99	228.77
790.32	228.72
790.64	228.71
790.96	228.86
791.28	228.76
791.61	228.73
791.93	228.71
792.25	228.67
792.57	228.77
792.89	228.71
793.21	228.70
793.54	228.66
793.86	228.61
794.18	228.60
794.50	228.54
794.82	228.51
795.14	228.51
795.47	228.52
795.79	228.50
796.11	228.43
796.43	228.41
796.75	228.38
797.07	228.36
797.39	228.32
797.71	228.15
798.04	228.14
798.36	228.13
798.68	228.10
799.00	228.10
799.32	227.98
799.64	227.99
799.96	227.97
800.28	227.98
800.60	227.95
800.92	227.94
801.24	227.92
801.56	227.91
801.89	227.87
802.21	227.86
802.53	227.81
802.85	227.84
803.17	227.91
803.49	227.85
803.81	227.82
804.13	227.79
804.45	227.75
804.77	227.75
805.09	227.73
805.41	227.70
805.73	227.64
806.05	227.58
806.37	227.55
806.69	227.52
807.01	227.48
807.33	227.48
807.65	227.40
807.97	227.46
808.28	227.42
808.60	227.40
808.92	227.35
809.24	227.45
809.56	227.40
809.88	227.31
810.20	227.31
810.52	227.33
810.84	227.29
811.16	227.26
811.48	227.23
811.80	227.27
812.12	227.25
812.43	227.28
812.75	227.28
813.07	227.24
813.39	227.24
813.71	227.20
814.03	227.17
814.35	227.17
814.67	227.08
814.98	227.05
815.30	227.04
815.62	227.00
815.94	226.86
816.26	226.87
816.58	226.82
816.89	226.82
817.21	226.77
817.53	226.77
817.85	226.77
818.17	226.76
818.48	226.67
818.80	226.70
819.12	226.65
819.44	226.61
819.76	226.58
820.07	226.56
820.39	226.55
820.71	226.56
821.03	226.55
821.34	226.53
821.66	226.54
821.98	226.55
822.30	226.53
822.61	226.64
822.93	226.60
823.25	226.59
823.57	226.56
823.88	226.58
824.20	226.56
824.52	226.58
824.83	226.56
825.15	226.54
825.47	226.51
825.79	226.53
826.10	226.51
826.42	226.50
826.74	226.50
827.05	226.49
827.37	226.48
827.69	226.47
828.00	226.47
828.32	226.46
828.64	226.42
828.95	226.51
829.27	226.45
829.58	226.44
829.90	226.47
830.22	226.47
830.53	226.43
830.85	226.41
831.17	226.35
831.48	226.34
831.80	226.34
832.11	226.32
832.43	226.29
832.75	226.28
833.06	226.39
833.38	226.33
833.69	226.32
834.01	226.32
834.32	226.31
834.64	226.28
834.96	226.28
835.27	226.27
835.59	226.20
835.90	226.17
836.22	226.16
836.53	226.11
836.85	226.09
837.16	226.27
837.48	226.27
837.79	226.32
838.11	226.32
838.42	226.31
838.74	226.33
839.05	226.31
839.37	226.30
839.68	226.18
840.00	226.18
840.31	226.20
840.63	226.17
840.94	226.15
841.26	226.13
841.57	226.12
841.88	226.13
842.20	226.11
842.51	226.07
842.83	226.07
843.14	226.23
843.46	226.22
843.77	226.11
844.08	226.09
844.40	226.03
844.71	226.00
845.03	225.98
845.34	225.96
845.65	225.96
845.97	225.96
846.28	225.96
846.60	225.97
846.91	225.93
847.22	225.92
847.54	225.96
847.85	225.96
848.16	225.94
848.48	225.90
848.79	225.97
849.10	225.99
849.42	226.00
849.73	225.82
850.04	225.82
850.36	225.75
850.67	225.79
850.98	225.79
851.30	225.81
851.61	225.80
851.92	225.80
852.23	225.85
852.55	225.86
852.86	225.86
853.17	225.87
853.49	225.91
853.80	225.94
854.11	225.95
854.42	225.97
854.74	225.95
855.05	225.96
855.36	225.86
855.67	225.86
855.99	225.86
856.30	226.07
856.61	226.07
856.92	226.07
857.23	226.07
857.55	226.05
857.86	226.03
858.17	226.06
858.48	226.02
858.79	225.98
859.11	225.99
859.42	225.98
859.73	225.95
860.04	225.94
860.35	225.88
860.66	225.82
860.98	225.81
861.29	225.84
861.60	225.82
861.91	225.87
862.22	225.84
862.53	225.80
862.84	225.59
863.16	225.62
863.47	225.59
863.78	225.56
864.09	225.57
864.40	225.58
864.71	225.58
865.02	225.61
865.33	225.59
865.64	225.55
865.95	225.55
866.27	225.66
866.58	225.64
866.89	225.66
867.20	225.66
867.51	225.63
867.82	225.61
868.13	225.67
868.44	225.63
868.75	225.66
869.06	225.67
869.37	225.69
869.68	225.64
869.99	225.67
870.30	225.68
870.61	225.69
870.92	225.66
871.23	225.64
871.54	225.66
871.85	225.71
872.16	225.73
872.47	225.71
872.78	225.61
873.09	225.63
873.40	225.61
873.71	225.62
874.02	225.64
874.33	225.62
874.64	225.58
874.95	225.61
875.26	225.57
875.56	225.56
875.87	225.55
876.18	225.55
876.49	225.72
876.80	225.70
877.11	225.67
877.42	225.68
877.73	225.68
878.04	225.65
878.35	225.64
878.66	225.64
878.96	225.64
879.27	225.63
879.58	225.61
879.89	225.60
880.20	225.65
880.51	225.64
880.82	225.65
881.12	225.66
881.43	225.62
881.74	225.60
882.05	225.59
882.36	225.60
882.67	225.61
882.97	225.41
883.28	225.40
883.59	225.40
883.90	225.41
884.21	225.43
884.51	225.43
884.82	225.40
885.13	225.39
885.44	225.39
885.74	225.39
886.05	225.38
886.36	225.38
886.67	225.31
886.98	225.40
887.28	225.42
887.59	225.41
887.90	225.42
888.20	225.42
888.51	225.45
888.82	225.42
889.13	225.43
889.43	225.59
889.74	225.58
890.05	225.58
890.35	225.56
890.66	225.52
890.97	225.50
891.28	225.49
891.58	225.49
891.89	225.49
892.20	225.47
892.50	225.45
892.81	225.44
893.12	225.44
893.42	225.34
893.73	225.34
894.04	225.34
894.34	225.35
894.65	225.35
894.95	225.32
895.26	225.34
895.57	225.41
895.87	225.23
896.18	225.26
896.48	225.28
896.79	225.27
897.10	225.31
897.40	225.32
897.71	225.34
898.01	225.32
898.32	225.34
898.63	225.34
898.93	225.35
899.24	225.36
899.54	225.35
899.85	225.35
900.15	225.34
900.46	225.34
900.76	225.35
901.07	225.35
901.38	225.35
901.68	225.36
901.99	225.27
902.29	225.28
902.60	225.26
902.90	225.24
903.21	225.24
903.51	225.22
903.82	225.26
904.12	225.25
904.43	225.27
904.73	225.25
905.03	225.27
905.34	225.44
905.64	225.43
905.95	225.44
906.25	225.43
906.56	225.43
906.86	225.43
907.17	225.41
907.47	225.42
907.77	225.41
908.08	225.37
908.38	225.38
908.69	225.39
908.99	225.42
909.30	225.44
909.60	225.44
909.90	225.43
910.21	225.38
910.51	225.35
910.81	225.35
911.12	225.36
911.42	225.36
911.73	225.17
912.03	225.18
912.33	225.21
912.64	225.20
912.94	225.18
913.24	225.15
913.55	225.14
913.85	225.13
914.15	225.16
914.46	225.19
914.76	225.17
915.06	225.16
915.37	225.12
915.67	225.11
915.97	225.11
916.27	225.08
916.58	225.10
916.88	225.10
917.18	225.08
917.49	225.20
917.79	225.20
918.09	225.23
918.39	225.27
918.70	225.26
919.00	225.27
919.30	225.36
919.60	225.35
919.91	225.33
920.21	225.34
920.51	225.30
920.81	225.28
921.12	225.31
921.42	225.31
921.72	225.32
922.02	225.33
922.32	225.35
922.63	225.36
922.93	225.47
923.23	225.47
923.53	225.46
923.83	225.34
924.13	225.35
924.44	225.34
924.74	225.36
925.04	225.40
925.34	225.40
925.64	225.32
925.94	225.32
926.24	225.43
926.55	225.41
926.85	225.44
927.15	225.44
927.45	225.44
927.75	225.44
928.05	225.45
928.35	225.43
928.65	225.45
928.95	225.47
929.26	225.38
929.56	225.41
929.86	225.44
930.16	225.42
930.46	225.41
930.76	225.41
931.06	225.33
931.36	225.28
931.66	225.31
931.96	225.33
932.26	225.34
932.56	225.26
932.86	225.28
933.16	225.27
933.46	225.25
933.76	225.22
934.06	225.25
934.36	225.31
934.66	225.30
934.96	225.28
935.26	225.28
935.56	225.31
935.86	225.26
936.16	225.23
936.46	225.22
936.76	225.21
937.06	225.18
937.36	225.20
937.66	225.20
937.96	225.19
938.26	225.15
938.56	225.14
938.86	225.15
939.16	225.18
939.46	225.19
939.76	225.21
940.06	225.21
940.35	225.18
940.65	225.08
940.95	225.10
941.25	225.06
941.55	225.04
941.85	225.02
942.15	225.06
942.45	225.11
942.75	225.11
943.04	225.12
943.34	225.16
943.64	225.14
943.94	225.11
944.24	225.11
944.54	225.13
944.84	225.12
945.13	225.09
945.43	225.06
945.73	225.05
946.03	225.03
946.33	225.02
946.62	225.00
946.92	225.00
947.22	225.01
947.52	225.02
947.82	225.05
948.11	225.03
948.41	224.98
948.71	224.93
949.01	224.94
949.31	224.92
949.60	224.90
949.90	224.93
950.20	224.93
950.50	224.92
950.79	224.90
951.09	224.93
951.39	224.93
951.69	224.92
951.98	224.95
952.28	224.96
952.58	224.96
952.87	224.97
953.17	224.99
953.47	224.97
953.76	224.97
954.06	224.94
954.36	224.91
954.66	224.91
954.95	224.97
955.25	224.98
955.55	225.00
955.84	224.97
956.14	224.98
956.44	225.00
956.73	224.97
957.03	224.99
957.32	224.99
957.62	224.98
957.92	225.02
958.21	224.99
958.51	225.20
958.81	225.23
959.10	225.25
959.40	225.29
959.69	225.30
959.99	225.33
960.29	225.33
960.58	225.33
960.88	225.40
961.17	225.38
961.47	225.39
961.76	225.37
962.06	225.41
962.36	225.38
962.65	225.39
962.95	225.40
963.24	225.38
963.54	225.39
963.83	225.40
964.13	225.39
964.42	225.37
964.72	225.22
965.01	225.22
965.31	225.20
965.60	225.16
965.90	225.27
966.19	225.23
966.49	225.24
966.78	225.24
967.08	225.22
967.37	225.23
967.67	225.19
967.96	225.22
968.26	225.21
968.55	225.23
968.85	225.22
969.14	225.22
969.43	225.22
969.73	225.20
970.02	225.19
970.32	225.18
970.61	225.16
970.91	225.11
971.20	225.08
971.49	225.07
971.79	225.09
972.08	224.95
972.38	224.97
972.67	224.96
972.96	224.99
973.26	224.95
973.55	225.00
973.85	225.00
974.14	224.98
974.43	224.99
974.73	224.96
975.02	224.94
975.31	224.94
975.61	224.94
975.90	224.93
976.19	224.92
976.49	224.93
976.78	224.94
977.07	224.94
977.37	224.96
977.66	224.98
977.95	224.94
978.24	224.96
978.54	224.99
978.83	224.98
979.12	224.96
979.42	224.97
979.71	224.93
980.00	224.93
980.29	224.94
980.59	224.90
980.88	224.95
981.17	224.95
981.46	224.96
981.76	224.96
982.05	225.01
982.34	225.03
982.63	225.03
982.93	225.02
983.22	225.07
983.51	225.08
983.80	225.10
984.09	225.12
984.39	225.11
984.68	225.08
984.97	225.09
985.26	225.08
985.55	225.10
985.85	225.06
986.14	225.09
986.43	225.11
986.72	225.10
987.01	225.05
987.30	225.04
987.59	225.03
987.89	225.04
988.18	224.98
988.47	224.97
988.76	224.95
989.05	224.94
989.34	224.90
989.63	224.94
989.92	224.91
990.22	224.89
990.51	224.89
990.80	224.88
991.09	224.90
991.38	224.92
991.67	224.90
991.96	224.89
992.25	224.89
992.54	224.85
992.83	224.86
993.12	224.86
993.41	224.89
993.70	224.97
993.99	225.00
994.28	225.03
994.58	225.06
994.87	225.04
995.16	225.04
995.45	225.03
995.74	224.96
996.03	224.99
996.32	225.03
996.61	225.06
996.90	225.06
997.19	225.04
997.48	225.04
997.77	225.03
998.06	225.04
998.34	225.02
998.63	225.02
998.92	225.03
999.21	225.06
999.50	225.05
999.79	224.99
1000.08	224.98
1000.37	224.97
1000.66	224.95
1000.95	224.99
1001.24	225.00
1001.53	225.03
1001.82	225.03
1002.11	224.99
1002.40	224.99
1002.68	225.03
1002.97	225.17
1003.26	225.15
1003.55	225.12
1003.84	225.14
1004.13	225.20
1004.42	225.19
1004.71	225.20
1004.99	225.18
1005.28	225.22
1005.57	225.21
1005.86	225.19
1006.15	225.18
1006.44	225.15
1006.72	225.18
1007.01	225.15
1007.30	225.15
1007.59	225.12
1007.88	225.12
1008.17	225.14
1008.45	225.10
1008.74	225.02
1009.03	224.93
1009.32	224.93
1009.60	224.94
1009.89	224.92
1010.18	224.84
1010.47	224.84
1010.76	224.83
1011.04	224.83
1011.33	224.82
1011.62	224.83
1011.91	224.85
1012.19	224.86
1012.48	224.86
1012.77	224.86
1013.05	224.92
1013.34	224.92
1013.63	224.91
1013.92	224.92
1014.20	224.91
1014.49	224.92
1014.78	224.94
1015.06	224.88
1015.35	224.88
1015.64	224.90
1015.92	224.93
1016.21	224.95
1016.50	224.95
1016.78	224.98
1017.07	224.99
1017.36	224.96
1017.64	224.94
1017.93	224.95
1018.22	224.93
1018.50	224.93
1018.79	224.93
1019.08	224.86
1019.36	224.87
1019.65	224.86
1019.93	224.90
1020.22	224.93
1020.51	225.03
1020.79	225.00
1021.08	224.71
1021.36	224.62
1021.65	224.91
1021.94	224.81
1022.22	225.02
1022.51	224.56
1022.79	225.80
1023.08	225.23
1023.36	227.06
1023.65	224.48
>>>>>End Processed Spectral Data<<<<<
