SpectraSuite Data File
++++++++++++++++++++++++++++++++++++
Date: Tue Oct 06 11:12:41 EDT 2015
User: lab3
Dark Spectrum Present: No
Reference Spectrum Present: No
Number of Sampled Component Spectra: 1
Spectrometers: USB2E7196
Integration Time (usec): 66000 (USB2E7196)
Spectra Averaged: 1000 (USB2E7196)
Boxcar Smoothing: 10 (USB2E7196)
Correct for Electrical Dark: No (USB2E7196)
Strobe/Lamp Enabled: No (USB2E7196)
Correct for Detector Non-linearity: No (USB2E7196)
Correct for Stray Light: No (USB2E7196)
Number of Pixels in Processed Spectrum: 2048
>>>>>Begin Processed Spectral Data<<<<<
339.09	0.00
339.48	215.85
339.86	217.59
340.24	218.93
340.63	220.24
341.01	224.27
341.39	223.00
341.78	224.53
342.16	225.63
342.54	226.11
342.93	214.46
343.31	225.30
343.69	225.83
344.07	226.30
344.46	226.73
344.84	227.15
345.22	227.33
345.60	227.60
345.99	227.80
346.37	227.94
346.75	228.06
347.13	228.15
347.52	228.25
347.90	228.37
348.28	228.41
348.66	228.49
349.05	228.47
349.43	228.54
349.81	228.62
350.19	228.68
350.57	228.76
350.96	228.85
351.34	228.96
351.72	229.07
352.10	229.19
352.48	229.26
352.87	229.30
353.25	229.39
353.63	229.44
354.01	229.50
354.39	229.58
354.77	229.66
355.15	229.78
355.54	229.82
355.92	229.84
356.30	229.91
356.68	230.10
357.06	230.18
357.44	230.21
357.82	230.26
358.20	230.47
358.58	230.53
358.97	230.60
359.35	230.69
359.73	230.79
360.11	230.83
360.49	230.90
360.87	230.95
361.25	231.01
361.63	231.11
362.01	231.17
362.39	231.19
362.77	231.25
363.15	231.27
363.53	231.31
363.91	231.35
364.29	231.38
364.67	231.22
365.05	231.23
365.43	231.29
365.81	231.33
366.19	231.27
366.57	231.36
366.95	231.36
367.33	231.33
367.71	231.32
368.09	231.37
368.47	231.37
368.85	231.35
369.23	231.38
369.61	231.31
369.99	231.36
370.37	231.37
370.75	231.48
371.13	231.44
371.51	231.39
371.89	231.38
372.27	231.36
372.65	231.35
373.03	231.30
373.41	231.24
373.78	231.18
374.16	231.07
374.54	230.96
374.92	230.91
375.30	230.85
375.68	230.77
376.06	230.71
376.44	230.64
376.82	230.60
377.19	230.56
377.57	230.50
377.95	230.39
378.33	230.33
378.71	230.12
379.09	230.09
379.47	230.06
379.84	229.98
380.22	229.92
380.60	229.84
380.98	229.80
381.36	229.76
381.73	229.69
382.11	229.67
382.49	229.65
382.87	229.58
383.25	229.54
383.62	229.73
384.00	229.64
384.38	229.62
384.76	229.64
385.13	229.65
385.51	229.62
385.89	229.56
386.27	229.54
386.64	229.54
387.02	229.49
387.40	229.44
387.78	229.44
388.15	229.42
388.53	229.40
388.91	229.38
389.29	229.36
389.66	229.38
390.04	229.35
390.42	229.35
390.79	229.34
391.17	229.34
391.55	229.12
391.92	229.13
392.30	229.13
392.68	229.07
393.05	229.03
393.43	229.04
393.81	229.06
394.18	229.05
394.56	229.05
394.94	229.10
395.31	229.10
395.69	229.16
396.06	229.21
396.44	229.25
396.82	229.27
397.19	229.39
397.57	229.40
397.95	229.47
398.32	229.47
398.70	229.54
399.07	229.63
399.45	229.69
399.82	229.75
400.20	229.81
400.58	229.91
400.95	229.95
401.33	230.07
401.70	230.30
402.08	230.44
402.45	230.58
402.83	230.76
403.20	230.93
403.58	231.06
403.95	231.27
404.33	231.50
404.71	231.72
405.08	232.02
405.46	232.28
405.83	232.54
406.21	232.84
406.58	233.17
406.96	233.50
407.33	233.88
407.70	234.31
408.08	234.88
408.45	235.39
408.83	235.92
409.20	236.42
409.58	236.88
409.95	237.50
410.33	238.17
410.70	238.81
411.08	239.55
411.45	240.36
411.82	241.17
412.20	242.10
412.57	243.18
412.95	244.06
413.32	245.20
413.69	246.38
414.07	247.64
414.44	249.00
414.82	250.40
415.19	252.03
415.56	253.70
415.94	255.42
416.31	257.36
416.68	259.31
417.06	261.57
417.43	263.68
417.81	266.10
418.18	268.58
418.55	271.28
418.93	274.12
419.30	277.06
419.67	280.18
420.04	283.42
420.42	286.81
420.79	290.69
421.16	294.62
421.54	298.58
421.91	302.74
422.28	307.05
422.66	311.70
423.03	316.11
423.40	320.76
423.77	325.73
424.15	330.81
424.52	336.07
424.89	341.77
425.26	347.44
425.64	352.70
426.01	358.60
426.38	364.64
426.75	370.82
427.13	377.15
427.50	383.78
427.87	390.61
428.24	397.51
428.61	404.13
428.99	411.25
429.36	419.13
429.73	426.65
430.10	434.14
430.47	441.80
430.85	449.76
431.22	458.22
431.59	466.88
431.96	475.31
432.33	484.72
432.70	493.64
433.08	504.24
433.45	514.25
433.82	524.06
434.19	535.06
434.56	545.88
434.93	556.34
435.30	566.74
435.68	578.58
436.05	590.11
436.42	601.66
436.79	612.20
437.16	623.58
437.53	635.83
437.90	648.09
438.27	660.04
438.64	672.89
439.01	684.59
439.38	695.46
439.75	705.94
440.13	717.83
440.50	729.19
440.87	738.20
441.24	748.04
441.61	758.91
441.98	766.91
442.35	776.36
442.72	786.06
443.09	795.33
443.46	801.43
443.83	806.03
444.20	809.83
444.57	815.39
444.94	818.80
445.31	822.19
445.68	825.11
446.05	827.30
446.42	827.10
446.79	826.66
447.16	826.23
447.53	825.97
447.90	822.61
448.27	819.28
448.64	814.03
449.01	810.57
449.37	803.17
449.74	796.53
450.11	787.90
450.48	778.36
450.85	768.74
451.22	760.38
451.59	752.22
451.96	744.93
452.33	734.24
452.70	724.66
453.07	713.07
453.43	701.53
453.80	690.33
454.17	679.58
454.54	669.61
454.91	658.29
455.28	647.55
455.65	637.32
456.02	626.65
456.38	618.07
456.75	606.96
457.12	597.99
457.49	588.91
457.86	580.36
458.23	572.88
458.59	564.58
458.96	556.09
459.33	548.63
459.70	541.02
460.07	535.16
460.43	528.29
460.80	521.85
461.17	516.21
461.54	510.17
461.91	504.53
462.27	498.75
462.64	494.06
463.01	488.68
463.38	483.35
463.74	478.52
464.11	474.26
464.48	470.41
464.85	466.23
465.21	463.00
465.58	459.42
465.95	455.33
466.32	452.06
466.68	448.87
467.05	445.64
467.42	442.47
467.78	439.11
468.15	436.04
468.52	433.76
468.88	430.77
469.25	428.06
469.62	425.89
469.98	423.52
470.35	421.37
470.72	419.49
471.08	417.47
471.45	415.79
471.82	413.90
472.18	411.96
472.55	410.70
472.92	409.16
473.28	407.93
473.65	406.61
474.02	405.41
474.38	404.39
474.75	403.75
475.11	402.89
475.48	402.47
475.85	402.03
476.21	401.79
476.58	401.61
476.94	401.80
477.31	401.81
477.67	401.92
478.04	402.22
478.41	402.63
478.77	403.26
479.14	403.63
479.50	404.42
479.87	405.39
480.23	406.38
480.60	407.32
480.96	408.29
481.33	409.71
481.69	411.13
482.06	412.53
482.42	413.86
482.79	415.47
483.15	417.36
483.52	419.48
483.88	421.52
484.25	423.71
484.61	425.99
484.98	428.44
485.34	431.20
485.71	434.06
486.07	437.11
486.44	440.11
486.80	443.47
487.17	446.90
487.53	450.69
487.90	454.63
488.26	458.93
488.62	463.44
488.99	468.00
489.35	472.81
489.72	477.98
490.08	483.39
490.44	488.88
490.81	494.60
491.17	500.45
491.54	506.67
491.90	513.04
492.26	519.81
492.63	526.91
492.99	534.29
493.36	541.94
493.72	550.00
494.08	558.21
494.45	566.84
494.81	575.86
495.17	585.08
495.54	594.78
495.90	604.95
496.26	615.34
496.63	625.93
496.99	636.92
497.35	648.35
497.72	660.13
498.08	672.39
498.44	684.86
498.80	698.14
499.17	711.74
499.53	725.77
499.89	740.24
500.26	754.76
500.62	769.60
500.98	785.12
501.34	800.79
501.71	817.21
502.07	833.93
502.43	851.13
502.79	868.40
503.16	886.13
503.52	904.03
503.88	922.39
504.24	941.20
504.60	960.23
504.97	979.69
505.33	999.59
505.69	1020.49
506.05	1041.50
506.41	1062.29
506.78	1083.37
507.14	1105.30
507.50	1127.63
507.86	1150.53
508.22	1173.45
508.59	1196.25
508.95	1219.77
509.31	1243.77
509.67	1268.27
510.03	1292.63
510.39	1317.29
510.75	1342.09
511.12	1367.13
511.48	1392.04
511.84	1417.00
512.20	1442.30
512.56	1468.25
512.92	1493.98
513.28	1519.18
513.64	1544.82
514.00	1570.49
514.37	1596.46
514.73	1622.17
515.09	1647.31
515.45	1672.55
515.81	1697.80
516.17	1723.05
516.53	1747.70
516.89	1772.35
517.25	1797.14
517.61	1821.74
517.97	1846.54
518.33	1870.65
518.69	1894.51
519.05	1918.63
519.41	1942.69
519.77	1966.62
520.13	1990.00
520.49	2013.35
520.85	2036.87
521.21	2059.89
521.57	2083.45
521.93	2105.71
522.29	2128.35
522.65	2150.51
523.01	2172.60
523.37	2193.97
523.73	2215.68
524.09	2237.43
524.45	2258.92
524.81	2279.69
525.17	2300.11
525.53	2319.89
525.89	2340.14
526.25	2359.75
526.61	2378.22
526.97	2396.78
527.33	2415.10
527.68	2432.33
528.04	2448.96
528.40	2464.56
528.76	2480.69
529.12	2495.45
529.48	2510.86
529.84	2524.93
530.20	2539.96
530.56	2553.82
530.91	2567.90
531.27	2580.89
531.63	2592.85
531.99	2604.19
532.35	2614.46
532.71	2624.50
533.07	2634.82
533.42	2643.64
533.78	2653.15
534.14	2663.20
534.50	2671.82
534.86	2680.46
535.21	2687.10
535.57	2694.01
535.93	2701.25
536.29	2707.16
536.65	2713.25
537.00	2717.26
537.36	2721.61
537.72	2724.38
538.08	2727.00
538.44	2728.30
538.79	2730.32
539.15	2731.56
539.51	2732.35
539.87	2733.19
540.22	2732.40
540.58	2731.92
540.94	2731.24
541.29	2729.37
541.65	2725.90
542.01	2722.53
542.37	2718.01
542.72	2715.49
543.08	2711.31
543.44	2706.98
543.79	2701.17
544.15	2694.91
544.51	2689.52
544.87	2682.44
545.22	2674.75
545.58	2666.83
545.94	2659.63
546.29	2651.00
546.65	2642.10
547.01	2633.30
547.36	2624.17
547.72	2614.99
548.07	2604.48
548.43	2593.72
548.79	2582.10
549.14	2571.29
549.50	2560.31
549.86	2548.87
550.21	2535.83
550.57	2524.00
550.92	2510.07
551.28	2496.93
551.64	2484.50
551.99	2471.85
552.35	2459.15
552.70	2446.44
553.06	2434.21
553.41	2421.16
553.77	2407.37
554.13	2393.64
554.48	2379.46
554.84	2364.89
555.19	2350.95
555.55	2336.61
555.90	2322.16
556.26	2308.58
556.61	2294.00
556.97	2278.62
557.32	2263.64
557.68	2248.71
558.03	2233.35
558.39	2218.96
558.74	2204.79
559.10	2188.73
559.45	2173.21
559.81	2158.53
560.16	2143.53
560.52	2128.23
560.87	2113.53
561.23	2098.36
561.58	2083.57
561.94	2067.96
562.29	2052.54
562.64	2037.07
563.00	2021.97
563.35	2007.48
563.71	1992.69
564.06	1977.72
564.42	1963.25
564.77	1948.71
565.12	1934.62
565.48	1920.48
565.83	1906.45
566.19	1892.38
566.54	1878.59
566.89	1863.74
567.25	1848.50
567.60	1834.27
567.96	1819.60
568.31	1804.23
568.66	1789.62
569.02	1775.30
569.37	1761.18
569.72	1747.22
570.08	1733.41
570.43	1719.15
570.78	1704.31
571.14	1689.38
571.49	1675.01
571.84	1661.41
572.20	1646.67
572.55	1632.08
572.90	1617.10
573.26	1601.97
573.61	1586.75
573.96	1572.22
574.31	1558.24
574.67	1544.51
575.02	1529.97
575.37	1515.15
575.72	1500.65
576.08	1486.53
576.43	1472.24
576.78	1458.10
577.13	1444.05
577.49	1430.06
577.84	1416.16
578.19	1402.24
578.54	1388.48
578.90	1374.73
579.25	1360.38
579.60	1347.09
579.95	1333.91
580.30	1320.64
580.66	1307.47
581.01	1294.52
581.36	1281.36
581.71	1268.17
582.06	1254.90
582.42	1241.86
582.77	1229.29
583.12	1216.90
583.47	1204.38
583.82	1192.09
584.17	1179.72
584.53	1167.50
584.88	1155.48
585.23	1143.42
585.58	1131.70
585.93	1120.10
586.28	1108.96
586.63	1097.78
586.98	1086.43
587.34	1075.42
587.69	1064.30
588.04	1053.54
588.39	1042.91
588.74	1032.03
589.09	1021.52
589.44	1010.86
589.79	1000.65
590.14	990.58
590.49	980.58
590.84	970.83
591.19	961.07
591.54	951.40
591.89	941.38
592.25	931.56
592.60	921.64
592.95	912.01
593.30	902.30
593.65	892.54
594.00	883.11
594.35	874.42
594.70	865.20
595.05	856.65
595.40	847.89
595.75	838.89
596.10	830.52
596.45	822.01
596.80	813.77
597.15	805.54
597.50	797.38
597.85	789.50
598.19	781.59
598.54	773.64
598.89	765.93
599.24	758.57
599.59	751.28
599.94	744.54
600.29	737.57
600.64	730.75
600.99	723.84
601.34	717.08
601.69	709.78
602.04	703.05
602.39	696.43
602.74	690.02
603.08	683.76
603.43	677.50
603.78	671.35
604.13	665.35
604.48	659.31
604.83	653.42
605.18	647.57
605.53	641.85
605.87	636.15
606.22	630.57
606.57	624.98
606.92	619.31
607.27	613.69
607.62	608.37
607.96	603.12
608.31	598.21
608.66	593.24
609.01	588.49
609.36	583.84
609.70	579.08
610.05	574.27
610.40	569.61
610.75	564.92
611.10	560.53
611.44	556.01
611.79	551.70
612.14	547.40
612.49	543.07
612.83	538.87
613.18	534.85
613.53	530.92
613.88	527.02
614.22	523.30
614.57	519.47
614.92	515.70
615.27	512.02
615.61	508.36
615.96	504.76
616.31	501.17
616.65	497.65
617.00	494.24
617.35	490.92
617.70	487.66
618.04	484.50
618.39	481.32
618.74	478.34
619.08	475.22
619.43	472.19
619.78	469.24
620.12	466.36
620.47	463.64
620.82	460.87
621.16	458.16
621.51	455.60
621.85	453.08
622.20	450.62
622.55	448.13
622.89	445.73
623.24	443.43
623.59	441.15
623.93	438.94
624.28	436.81
624.62	434.89
624.97	432.97
625.32	430.91
625.66	428.82
626.01	426.76
626.35	424.87
626.70	422.93
627.04	421.15
627.39	419.30
627.73	417.46
628.08	415.74
628.43	414.09
628.77	412.34
629.12	410.71
629.46	409.08
629.81	407.59
630.15	405.96
630.50	404.38
630.84	402.90
631.19	401.46
631.53	400.05
631.88	398.44
632.22	396.89
632.57	395.68
632.91	394.44
633.26	393.28
633.60	392.07
633.95	390.90
634.29	389.62
634.64	388.46
634.98	387.16
635.32	386.01
635.67	384.89
636.01	383.85
636.36	382.84
636.70	381.91
637.05	380.82
637.39	379.88
637.73	378.95
638.08	378.05
638.42	377.13
638.77	376.15
639.11	375.11
639.45	374.12
639.80	373.07
640.14	372.12
640.49	371.11
640.83	370.13
641.17	369.21
641.52	368.29
641.86	367.42
642.20	366.71
642.55	365.79
642.89	364.92
643.23	364.03
643.58	363.25
643.92	362.29
644.26	361.41
644.61	360.62
644.95	359.82
645.29	358.93
645.64	358.04
645.98	357.19
646.32	356.48
646.66	355.73
647.01	354.96
647.35	354.22
647.69	353.46
648.04	352.75
648.38	352.00
648.72	351.30
649.06	350.61
649.41	349.86
649.75	349.15
650.09	348.50
650.43	347.83
650.78	347.10
651.12	346.44
651.46	345.80
651.80	345.15
652.14	344.48
652.49	343.89
652.83	343.24
653.17	342.61
653.51	342.00
653.85	341.46
654.20	340.86
654.54	340.19
654.88	339.59
655.22	338.99
655.56	338.28
655.90	337.63
656.25	336.95
656.59	336.30
656.93	335.75
657.27	335.20
657.61	334.58
657.95	334.04
658.29	333.49
658.64	332.97
658.98	332.36
659.32	331.76
659.66	331.18
660.00	330.64
660.34	330.12
660.68	329.54
661.02	328.91
661.36	328.32
661.70	327.78
662.05	327.23
662.39	326.72
662.73	326.33
663.07	325.91
663.41	325.42
663.75	324.88
664.09	324.35
664.43	323.74
664.77	323.25
665.11	322.63
665.45	322.07
665.79	321.51
666.13	320.95
666.47	320.43
666.81	319.86
667.15	319.27
667.49	318.72
667.83	318.27
668.17	317.77
668.51	317.30
668.85	316.87
669.19	316.51
669.53	316.00
669.87	315.46
670.21	314.94
670.55	314.46
670.89	314.11
671.23	313.63
671.57	313.20
671.91	312.79
672.25	312.40
672.58	312.03
672.92	311.56
673.26	311.16
673.60	310.74
673.94	310.32
674.28	309.96
674.62	309.58
674.96	309.09
675.30	308.68
675.64	308.24
675.97	307.74
676.31	307.19
676.65	306.70
676.99	306.32
677.33	305.83
677.67	305.37
678.01	304.80
678.34	304.35
678.68	303.89
679.02	303.41
679.36	302.95
679.70	302.45
680.04	302.01
680.37	301.57
680.71	301.15
681.05	300.73
681.39	300.25
681.73	299.75
682.06	299.28
682.40	298.83
682.74	298.41
683.08	298.08
683.42	297.64
683.75	297.24
684.09	296.71
684.43	296.26
684.77	295.78
685.10	295.36
685.44	294.96
685.78	294.53
686.12	294.08
686.45	293.63
686.79	293.16
687.13	292.74
687.46	292.25
687.80	291.78
688.14	291.27
688.48	290.83
688.81	290.36
689.15	289.98
689.49	289.53
689.82	289.05
690.16	288.48
690.50	288.02
690.83	287.55
691.17	287.08
691.51	286.64
691.84	286.25
692.18	285.81
692.52	285.32
692.85	284.87
693.19	284.49
693.52	284.05
693.86	283.61
694.20	283.17
694.53	282.74
694.87	282.27
695.21	281.82
695.54	281.38
695.88	280.94
696.21	280.43
696.55	279.98
696.88	279.54
697.22	279.09
697.56	278.67
697.89	278.20
698.23	277.78
698.56	277.31
698.90	276.89
699.23	276.42
699.57	276.01
699.90	275.57
700.24	275.08
700.58	274.67
700.91	274.31
701.25	274.06
701.58	273.74
701.92	273.42
702.25	273.08
702.59	272.67
702.92	272.28
703.26	271.89
703.59	271.51
703.93	271.25
704.26	270.89
704.60	270.49
704.93	270.10
705.26	269.70
705.60	269.35
705.93	268.92
706.27	268.61
706.60	268.26
706.94	267.95
707.27	267.58
707.61	267.19
707.94	266.76
708.27	266.23
708.61	265.77
708.94	265.34
709.28	264.96
709.61	264.59
709.94	264.26
710.28	263.94
710.61	263.64
710.95	263.17
711.28	262.95
711.61	262.64
711.95	262.37
712.28	262.04
712.61	261.70
712.95	261.47
713.28	261.22
713.61	260.87
713.95	260.50
714.28	260.20
714.61	259.87
714.95	259.59
715.28	259.29
715.61	259.00
715.95	258.72
716.28	258.41
716.61	258.14
716.95	257.82
717.28	257.50
717.61	257.16
717.94	256.88
718.28	256.47
718.61	256.17
718.94	255.86
719.27	255.59
719.61	255.37
719.94	255.07
720.27	254.71
720.60	254.47
720.94	254.22
721.27	253.97
721.60	253.77
721.93	253.50
722.27	253.30
722.60	253.07
722.93	252.82
723.26	252.61
723.59	252.34
723.93	252.14
724.26	251.94
724.59	251.72
724.92	251.51
725.25	251.34
725.59	251.14
725.92	250.95
726.25	250.74
726.58	250.51
726.91	250.28
727.24	250.07
727.57	249.85
727.91	249.60
728.24	249.41
728.57	249.19
728.90	249.02
729.23	248.78
729.56	248.67
729.89	248.47
730.22	248.26
730.55	248.08
730.89	247.90
731.22	247.69
731.55	247.50
731.88	247.32
732.21	247.10
732.54	246.89
732.87	246.72
733.20	246.54
733.53	246.36
733.86	246.20
734.19	246.02
734.52	245.88
734.85	245.85
735.18	245.66
735.51	245.54
735.84	245.37
736.17	245.25
736.50	244.99
736.83	245.04
737.16	244.89
737.49	244.74
737.82	244.56
738.15	244.44
738.48	244.28
738.81	244.12
739.14	243.94
739.47	243.78
739.80	243.61
740.13	243.49
740.46	243.31
740.79	243.14
741.12	242.99
741.45	242.81
741.78	242.56
742.11	242.46
742.44	242.27
742.77	242.15
743.10	241.97
743.43	241.82
743.75	241.49
744.08	241.62
744.41	241.47
744.74	241.32
745.07	241.14
745.40	241.06
745.73	241.01
746.06	240.90
746.39	240.80
746.71	240.67
747.04	240.51
747.37	240.39
747.70	240.29
748.03	240.17
748.36	240.07
748.68	239.95
749.01	239.79
749.34	239.69
749.67	239.58
750.00	239.49
750.33	239.50
750.65	239.42
750.98	239.06
751.31	238.96
751.64	238.88
751.97	238.87
752.29	238.73
752.62	238.54
752.95	238.41
753.28	238.28
753.60	238.17
753.93	238.11
754.26	238.02
754.59	237.88
754.91	237.75
755.24	237.64
755.57	237.62
755.90	237.52
756.22	237.40
756.55	237.27
756.88	237.13
757.20	236.92
757.53	236.77
757.86	236.66
758.19	236.56
758.51	236.47
758.84	236.28
759.17	236.18
759.49	236.08
759.82	236.09
760.15	236.02
760.47	235.94
760.80	235.81
761.13	235.75
761.45	235.67
761.78	235.60
762.11	235.53
762.43	235.36
762.76	235.29
763.08	235.23
763.41	235.17
763.74	235.09
764.06	235.02
764.39	234.96
764.71	234.89
765.04	234.81
765.37	234.71
765.69	234.63
766.02	234.56
766.34	234.48
766.67	234.35
767.00	234.30
767.32	234.32
767.65	234.38
767.97	234.28
768.30	234.22
768.62	234.16
768.95	234.06
769.27	233.99
769.60	233.94
769.92	233.85
770.25	233.77
770.57	233.69
770.90	233.62
771.22	233.53
771.55	233.47
771.87	233.43
772.20	233.38
772.52	233.49
772.85	233.65
773.17	233.61
773.50	233.54
773.82	233.47
774.15	233.33
774.47	233.17
774.80	233.11
775.12	233.06
775.45	233.00
775.77	232.97
776.09	232.94
776.42	232.90
776.74	232.93
777.07	232.88
777.39	232.85
777.72	232.80
778.04	232.80
778.36	232.74
778.69	232.70
779.01	232.67
779.33	232.49
779.66	232.24
779.98	232.18
780.31	232.16
780.63	232.20
780.95	232.19
781.28	232.16
781.60	232.12
781.92	232.09
782.25	232.07
782.57	232.04
782.89	231.99
783.22	231.94
783.54	231.85
783.86	231.85
784.19	231.81
784.51	231.84
784.83	231.78
785.16	231.75
785.48	231.73
785.80	231.69
786.12	231.68
786.45	231.65
786.77	231.65
787.09	231.61
787.42	231.51
787.74	231.49
788.06	231.47
788.38	231.44
788.71	231.39
789.03	231.37
789.35	231.37
789.67	231.31
789.99	231.31
790.32	231.26
790.64	231.23
790.96	231.37
791.28	231.29
791.61	231.25
791.93	231.23
792.25	231.20
792.57	231.30
792.89	231.23
793.21	231.23
793.54	231.18
793.86	231.14
794.18	231.13
794.50	231.07
794.82	231.05
795.14	231.06
795.47	231.07
795.79	231.05
796.11	230.98
796.43	230.96
796.75	230.93
797.07	230.92
797.39	230.90
797.71	230.73
798.04	230.73
798.36	230.73
798.68	230.71
799.00	230.70
799.32	230.59
799.64	230.60
799.96	230.58
800.28	230.60
800.60	230.57
800.92	230.56
801.24	230.54
801.56	230.53
801.89	230.47
802.21	230.46
802.53	230.41
802.85	230.43
803.17	230.50
803.49	230.44
803.81	230.42
804.13	230.40
804.45	230.37
804.77	230.37
805.09	230.36
805.41	230.33
805.73	230.28
806.05	230.22
806.37	230.19
806.69	230.15
807.01	230.12
807.33	230.12
807.65	230.03
807.97	230.11
808.28	230.07
808.60	230.06
808.92	230.02
809.24	230.12
809.56	230.07
809.88	230.00
810.20	230.00
810.52	230.01
810.84	229.97
811.16	229.93
811.48	229.89
811.80	229.93
812.12	229.92
812.43	229.95
812.75	229.95
813.07	229.92
813.39	229.92
813.71	229.88
814.03	229.85
814.35	229.86
814.67	229.76
814.98	229.73
815.30	229.73
815.62	229.70
815.94	229.57
816.26	229.58
816.58	229.54
816.89	229.55
817.21	229.49
817.53	229.50
817.85	229.49
818.17	229.47
818.48	229.40
818.80	229.42
819.12	229.38
819.44	229.34
819.76	229.32
820.07	229.30
820.39	229.30
820.71	229.31
821.03	229.31
821.34	229.28
821.66	229.31
821.98	229.30
822.30	229.27
822.61	229.38
822.93	229.34
823.25	229.32
823.57	229.30
823.88	229.32
824.20	229.31
824.52	229.33
824.83	229.32
825.15	229.30
825.47	229.28
825.79	229.29
826.10	229.27
826.42	229.26
826.74	229.26
827.05	229.26
827.37	229.25
827.69	229.23
828.00	229.24
828.32	229.23
828.64	229.20
828.95	229.29
829.27	229.22
829.58	229.23
829.90	229.26
830.22	229.27
830.53	229.22
830.85	229.20
831.17	229.14
831.48	229.13
831.80	229.14
832.11	229.12
832.43	229.08
832.75	229.07
833.06	229.17
833.38	229.11
833.69	229.10
834.01	229.10
834.32	229.08
834.64	229.06
834.96	229.06
835.27	229.06
835.59	229.00
835.90	228.97
836.22	228.96
836.53	228.91
836.85	228.87
837.16	229.06
837.48	229.06
837.79	229.13
838.11	229.13
838.42	229.11
838.74	229.13
839.05	229.12
839.37	229.12
839.68	229.01
840.00	229.00
840.31	229.02
840.63	229.00
840.94	228.99
841.26	228.96
841.57	228.96
841.88	228.97
842.20	228.94
842.51	228.93
842.83	228.91
843.14	229.07
843.46	229.06
843.77	228.95
844.08	228.92
844.40	228.85
844.71	228.84
845.03	228.83
845.34	228.80
845.65	228.80
845.97	228.79
846.28	228.79
846.60	228.80
846.91	228.76
847.22	228.74
847.54	228.77
847.85	228.78
848.16	228.75
848.48	228.71
848.79	228.78
849.10	228.80
849.42	228.81
849.73	228.65
850.04	228.66
850.36	228.59
850.67	228.63
850.98	228.64
851.30	228.65
851.61	228.63
851.92	228.63
852.23	228.68
852.55	228.68
852.86	228.68
853.17	228.69
853.49	228.74
853.80	228.78
854.11	228.79
854.42	228.82
854.74	228.80
855.05	228.81
855.36	228.70
855.67	228.70
855.99	228.69
856.30	228.88
856.61	228.87
856.92	228.88
857.23	228.87
857.55	228.85
857.86	228.82
858.17	228.86
858.48	228.83
858.79	228.80
859.11	228.81
859.42	228.80
859.73	228.77
860.04	228.75
860.35	228.70
860.66	228.64
860.98	228.62
861.29	228.65
861.60	228.63
861.91	228.68
862.22	228.65
862.53	228.62
862.84	228.43
863.16	228.46
863.47	228.42
863.78	228.40
864.09	228.40
864.40	228.41
864.71	228.41
865.02	228.43
865.33	228.41
865.64	228.38
865.95	228.38
866.27	228.49
866.58	228.47
866.89	228.51
867.20	228.50
867.51	228.46
867.82	228.44
868.13	228.49
868.44	228.45
868.75	228.48
869.06	228.49
869.37	228.51
869.68	228.45
869.99	228.48
870.30	228.50
870.61	228.52
870.92	228.49
871.23	228.47
871.54	228.48
871.85	228.52
872.16	228.54
872.47	228.53
872.78	228.43
873.09	228.45
873.40	228.42
873.71	228.44
874.02	228.48
874.33	228.46
874.64	228.42
874.95	228.45
875.26	228.41
875.56	228.40
875.87	228.38
876.18	228.39
876.49	228.57
876.80	228.55
877.11	228.52
877.42	228.52
877.73	228.53
878.04	228.51
878.35	228.51
878.66	228.51
878.96	228.50
879.27	228.50
879.58	228.48
879.89	228.46
880.20	228.51
880.51	228.49
880.82	228.50
881.12	228.51
881.43	228.47
881.74	228.46
882.05	228.45
882.36	228.47
882.67	228.48
882.97	228.28
883.28	228.27
883.59	228.27
883.90	228.30
884.21	228.32
884.51	228.30
884.82	228.27
885.13	228.26
885.44	228.26
885.74	228.27
886.05	228.26
886.36	228.28
886.67	228.20
886.98	228.28
887.28	228.29
887.59	228.30
887.90	228.31
888.20	228.31
888.51	228.35
888.82	228.31
889.13	228.32
889.43	228.49
889.74	228.48
890.05	228.47
890.35	228.44
890.66	228.41
890.97	228.40
891.28	228.38
891.58	228.39
891.89	228.39
892.20	228.37
892.50	228.34
892.81	228.32
893.12	228.33
893.42	228.24
893.73	228.25
894.04	228.24
894.34	228.24
894.65	228.24
894.95	228.22
895.26	228.23
895.57	228.31
895.87	228.12
896.18	228.15
896.48	228.16
896.79	228.15
897.10	228.18
897.40	228.18
897.71	228.21
898.01	228.18
898.32	228.20
898.63	228.20
898.93	228.22
899.24	228.23
899.54	228.21
899.85	228.21
900.15	228.19
900.46	228.19
900.76	228.21
901.07	228.20
901.38	228.19
901.68	228.19
901.99	228.09
902.29	228.12
902.60	228.09
902.90	228.07
903.21	228.07
903.51	228.05
903.82	228.09
904.12	228.08
904.43	228.10
904.73	228.08
905.03	228.09
905.34	228.27
905.64	228.26
905.95	228.27
906.25	228.26
906.56	228.26
906.86	228.27
907.17	228.26
907.47	228.28
907.77	228.26
908.08	228.24
908.38	228.25
908.69	228.26
908.99	228.29
909.30	228.30
909.60	228.30
909.90	228.30
910.21	228.24
910.51	228.21
910.81	228.21
911.12	228.23
911.42	228.23
911.73	228.04
912.03	228.04
912.33	228.08
912.64	228.06
912.94	228.05
913.24	228.02
913.55	228.00
913.85	227.98
914.15	228.02
914.46	228.04
914.76	228.02
915.06	228.01
915.37	227.97
915.67	227.96
915.97	227.96
916.27	227.94
916.58	227.96
916.88	227.96
917.18	227.94
917.49	228.05
917.79	228.04
918.09	228.06
918.39	228.11
918.70	228.10
919.00	228.11
919.30	228.20
919.60	228.19
919.91	228.16
920.21	228.17
920.51	228.13
920.81	228.11
921.12	228.14
921.42	228.14
921.72	228.16
922.02	228.17
922.32	228.19
922.63	228.21
922.93	228.30
923.23	228.31
923.53	228.30
923.83	228.18
924.13	228.20
924.44	228.20
924.74	228.23
925.04	228.26
925.34	228.25
925.64	228.18
925.94	228.18
926.24	228.29
926.55	228.27
926.85	228.30
927.15	228.30
927.45	228.29
927.75	228.28
928.05	228.28
928.35	228.26
928.65	228.30
928.95	228.31
929.26	228.22
929.56	228.26
929.86	228.28
930.16	228.26
930.46	228.26
930.76	228.25
931.06	228.16
931.36	228.11
931.66	228.13
931.96	228.15
932.26	228.16
932.56	228.07
932.86	228.11
933.16	228.11
933.46	228.09
933.76	228.06
934.06	228.10
934.36	228.16
934.66	228.15
934.96	228.12
935.26	228.13
935.56	228.17
935.86	228.11
936.16	228.10
936.46	228.09
936.76	228.07
937.06	228.04
937.36	228.07
937.66	228.08
937.96	228.07
938.26	228.04
938.56	228.03
938.86	228.04
939.16	228.06
939.46	228.08
939.76	228.09
940.06	228.11
940.35	228.08
940.65	227.99
940.95	228.01
941.25	227.95
941.55	227.93
941.85	227.90
942.15	227.93
942.45	227.97
942.75	227.97
943.04	227.98
943.34	228.02
943.64	228.01
943.94	227.98
944.24	227.98
944.54	228.00
944.84	227.99
945.13	227.95
945.43	227.92
945.73	227.90
946.03	227.90
946.33	227.88
946.62	227.86
946.92	227.85
947.22	227.85
947.52	227.88
947.82	227.91
948.11	227.89
948.41	227.86
948.71	227.81
949.01	227.81
949.31	227.79
949.60	227.77
949.90	227.81
950.20	227.81
950.50	227.80
950.79	227.79
951.09	227.82
951.39	227.83
951.69	227.82
951.98	227.86
952.28	227.87
952.58	227.85
952.87	227.85
953.17	227.89
953.47	227.86
953.76	227.86
954.06	227.82
954.36	227.81
954.66	227.81
954.95	227.86
955.25	227.86
955.55	227.88
955.84	227.86
956.14	227.86
956.44	227.87
956.73	227.84
957.03	227.85
957.32	227.84
957.62	227.83
957.92	227.86
958.21	227.84
958.51	228.04
958.81	228.07
959.10	228.09
959.40	228.12
959.69	228.14
959.99	228.16
960.29	228.18
960.58	228.18
960.88	228.24
961.17	228.23
961.47	228.25
961.76	228.24
962.06	228.27
962.36	228.25
962.65	228.26
962.95	228.28
963.24	228.26
963.54	228.25
963.83	228.28
964.13	228.26
964.42	228.24
964.72	228.10
965.01	228.10
965.31	228.09
965.60	228.04
965.90	228.17
966.19	228.13
966.49	228.13
966.78	228.13
967.08	228.11
967.37	228.11
967.67	228.08
967.96	228.12
968.26	228.11
968.55	228.14
968.85	228.13
969.14	228.14
969.43	228.14
969.73	228.14
970.02	228.13
970.32	228.12
970.61	228.10
970.91	228.04
971.20	228.03
971.49	228.02
971.79	228.06
972.08	227.91
972.38	227.94
972.67	227.92
972.96	227.94
973.26	227.91
973.55	227.97
973.85	227.96
974.14	227.94
974.43	227.95
974.73	227.92
975.02	227.90
975.31	227.91
975.61	227.91
975.90	227.89
976.19	227.88
976.49	227.88
976.78	227.90
977.07	227.91
977.37	227.92
977.66	227.93
977.95	227.89
978.24	227.91
978.54	227.93
978.83	227.93
979.12	227.92
979.42	227.92
979.71	227.86
980.00	227.87
980.29	227.87
980.59	227.83
980.88	227.88
981.17	227.87
981.46	227.87
981.76	227.87
982.05	227.93
982.34	227.95
982.63	227.95
982.93	227.94
983.22	227.99
983.51	227.97
983.80	228.00
984.09	228.02
984.39	228.01
984.68	227.99
984.97	227.99
985.26	227.97
985.55	227.98
985.85	227.95
986.14	227.98
986.43	228.00
986.72	227.98
987.01	227.94
987.30	227.94
987.59	227.92
987.89	227.92
988.18	227.87
988.47	227.85
988.76	227.83
989.05	227.82
989.34	227.79
989.63	227.84
989.92	227.81
990.22	227.78
990.51	227.78
990.80	227.77
991.09	227.79
991.38	227.83
991.67	227.81
991.96	227.79
992.25	227.78
992.54	227.75
992.83	227.76
993.12	227.75
993.41	227.79
993.70	227.86
993.99	227.88
994.28	227.89
994.58	227.93
994.87	227.92
995.16	227.92
995.45	227.90
995.74	227.85
996.03	227.88
996.32	227.91
996.61	227.94
996.90	227.94
997.19	227.93
997.48	227.93
997.77	227.90
998.06	227.94
998.34	227.92
998.63	227.92
998.92	227.92
999.21	227.95
999.50	227.93
999.79	227.87
1000.08	227.87
1000.37	227.87
1000.66	227.86
1000.95	227.89
1001.24	227.90
1001.53	227.92
1001.82	227.91
1002.11	227.86
1002.40	227.87
1002.68	227.91
1002.97	228.03
1003.26	228.00
1003.55	227.97
1003.84	227.99
1004.13	228.04
1004.42	228.03
1004.71	228.05
1004.99	228.05
1005.28	228.08
1005.57	228.07
1005.86	228.06
1006.15	228.05
1006.44	228.02
1006.72	228.02
1007.01	228.00
1007.30	227.99
1007.59	227.97
1007.88	227.98
1008.17	228.00
1008.45	227.96
1008.74	227.89
1009.03	227.79
1009.32	227.80
1009.60	227.81
1009.89	227.79
1010.18	227.72
1010.47	227.72
1010.76	227.72
1011.04	227.71
1011.33	227.71
1011.62	227.73
1011.91	227.74
1012.19	227.76
1012.48	227.77
1012.77	227.77
1013.05	227.83
1013.34	227.84
1013.63	227.84
1013.92	227.85
1014.20	227.84
1014.49	227.85
1014.78	227.87
1015.06	227.82
1015.35	227.83
1015.64	227.85
1015.92	227.88
1016.21	227.88
1016.50	227.89
1016.78	227.90
1017.07	227.91
1017.36	227.88
1017.64	227.85
1017.93	227.87
1018.22	227.85
1018.50	227.85
1018.79	227.84
1019.08	227.78
1019.36	227.79
1019.65	227.78
1019.93	227.82
1020.22	227.85
1020.51	227.94
1020.79	227.92
1021.08	227.61
1021.36	227.61
1021.65	227.78
1021.94	227.72
1022.22	227.99
1022.51	227.59
1022.79	228.58
1023.08	228.25
1023.36	229.95
1023.65	227.57
>>>>>End Processed Spectral Data<<<<<
