SpectraSuite Data File
++++++++++++++++++++++++++++++++++++
Date: Tue Oct 06 15:46:56 EDT 2015
User: lab3
Dark Spectrum Present: No
Reference Spectrum Present: No
Number of Sampled Component Spectra: 1
Spectrometers: USB2E7196
Integration Time (usec): 66000 (USB2E7196)
Spectra Averaged: 1000 (USB2E7196)
Boxcar Smoothing: 10 (USB2E7196)
Correct for Electrical Dark: No (USB2E7196)
Strobe/Lamp Enabled: No (USB2E7196)
Correct for Detector Non-linearity: No (USB2E7196)
Correct for Stray Light: No (USB2E7196)
Number of Pixels in Processed Spectrum: 2048
>>>>>Begin Processed Spectral Data<<<<<
339.09	0.00
339.48	215.49
339.86	217.00
340.24	218.51
340.63	219.78
341.01	223.79
341.39	222.52
341.78	223.98
342.16	225.33
342.54	225.60
342.93	214.08
343.31	224.89
343.69	225.44
344.07	225.91
344.46	226.34
344.84	226.75
345.22	226.96
345.60	227.23
345.99	227.44
346.37	227.59
346.75	227.70
347.13	227.80
347.52	227.89
347.90	228.02
348.28	228.06
348.66	228.15
349.05	228.13
349.43	228.20
349.81	228.27
350.19	228.32
350.57	228.41
350.96	228.50
351.34	228.61
351.72	228.72
352.10	228.84
352.48	228.92
352.87	228.97
353.25	229.03
353.63	229.09
354.01	229.15
354.39	229.22
354.77	229.30
355.15	229.42
355.54	229.46
355.92	229.47
356.30	229.54
356.68	229.73
357.06	229.81
357.44	229.84
357.82	229.90
358.20	230.12
358.58	230.18
358.97	230.25
359.35	230.33
359.73	230.43
360.11	230.47
360.49	230.54
360.87	230.59
361.25	230.65
361.63	230.76
362.01	230.82
362.39	230.84
362.77	230.90
363.15	230.92
363.53	230.95
363.91	230.99
364.29	231.02
364.67	230.87
365.05	230.88
365.43	230.92
365.81	230.96
366.19	230.90
366.57	230.98
366.95	230.98
367.33	230.94
367.71	230.93
368.09	230.95
368.47	230.95
368.85	230.93
369.23	230.96
369.61	230.88
369.99	230.92
370.37	230.93
370.75	231.03
371.13	230.99
371.51	230.96
371.89	230.94
372.27	230.93
372.65	230.91
373.03	230.87
373.41	230.82
373.78	230.77
374.16	230.65
374.54	230.55
374.92	230.48
375.30	230.45
375.68	230.38
376.06	230.34
376.44	230.28
376.82	230.25
377.19	230.21
377.57	230.16
377.95	230.06
378.33	229.99
378.71	229.79
379.09	229.74
379.47	229.71
379.84	229.64
380.22	229.56
380.60	229.47
380.98	229.44
381.36	229.39
381.73	229.32
382.11	229.31
382.49	229.27
382.87	229.23
383.25	229.19
383.62	229.36
384.00	229.29
384.38	229.27
384.76	229.27
385.13	229.27
385.51	229.24
385.89	229.19
386.27	229.16
386.64	229.15
387.02	229.11
387.40	229.08
387.78	229.06
388.15	229.06
388.53	229.03
388.91	229.01
389.29	228.98
389.66	228.98
390.04	228.94
390.42	228.95
390.79	228.94
391.17	228.93
391.55	228.72
391.92	228.71
392.30	228.72
392.68	228.68
393.05	228.66
393.43	228.68
393.81	228.70
394.18	228.68
394.56	228.70
394.94	228.75
395.31	228.75
395.69	228.82
396.06	228.87
396.44	228.92
396.82	228.94
397.19	229.07
397.57	229.10
397.95	229.18
398.32	229.17
398.70	229.24
399.07	229.32
399.45	229.38
399.82	229.45
400.20	229.51
400.58	229.61
400.95	229.63
401.33	229.74
401.70	229.96
402.08	230.11
402.45	230.24
402.83	230.42
403.20	230.58
403.58	230.72
403.95	230.93
404.33	231.15
404.71	231.37
405.08	231.67
405.46	231.91
405.83	232.19
406.21	232.48
406.58	232.80
406.96	233.14
407.33	233.50
407.70	233.93
408.08	234.50
408.45	235.00
408.83	235.56
409.20	236.06
409.58	236.52
409.95	237.14
410.33	237.80
410.70	238.44
411.08	239.21
411.45	240.01
411.82	240.82
412.20	241.74
412.57	242.85
412.95	243.74
413.32	244.89
413.69	246.08
414.07	247.35
414.44	248.73
414.82	250.13
415.19	251.77
415.56	253.43
415.94	255.18
416.31	257.13
416.68	259.08
417.06	261.35
417.43	263.47
417.81	265.93
418.18	268.45
418.55	271.16
418.93	273.98
419.30	276.95
419.67	280.10
420.04	283.35
420.42	286.73
420.79	290.64
421.16	294.57
421.54	298.56
421.91	302.73
422.28	307.07
422.66	311.76
423.03	316.20
423.40	320.87
423.77	325.85
424.15	330.96
424.52	336.27
424.89	342.00
425.26	347.71
425.64	352.99
426.01	358.91
426.38	364.98
426.75	371.22
427.13	377.62
427.50	384.31
427.87	391.24
428.24	398.23
428.61	404.93
428.99	412.15
429.36	420.09
429.73	427.66
430.10	435.19
430.47	442.90
430.85	450.92
431.22	459.44
431.59	468.19
431.96	476.72
432.33	486.20
432.70	495.22
433.08	505.89
433.45	515.94
433.82	525.87
434.19	537.00
434.56	547.95
434.93	558.57
435.30	569.09
435.68	581.06
436.05	592.74
436.42	604.43
436.79	615.12
437.16	626.73
437.53	639.17
437.90	651.59
438.27	663.79
438.64	676.93
439.01	688.87
439.38	699.86
439.75	710.47
440.13	722.55
440.50	734.06
440.87	743.24
441.24	753.33
441.61	764.39
441.98	772.58
442.35	782.31
442.72	792.17
443.09	801.55
443.46	807.68
443.83	812.36
444.20	816.21
444.57	821.83
444.94	825.14
445.31	828.53
445.68	831.47
446.05	833.67
446.42	833.39
446.79	832.85
447.16	832.39
447.53	832.00
447.90	828.43
448.27	824.99
448.64	819.61
449.01	815.90
449.37	808.24
449.74	801.30
450.11	792.27
450.48	782.41
450.85	772.52
451.22	763.98
451.59	755.57
451.96	747.99
452.33	736.99
452.70	727.20
453.07	715.37
453.43	703.57
453.80	692.06
454.17	681.01
454.54	670.77
454.91	659.26
455.28	648.39
455.65	638.13
456.02	627.29
456.38	618.56
456.75	607.43
457.12	598.43
457.49	589.29
457.86	580.69
458.23	573.08
458.59	564.74
458.96	556.18
459.33	548.64
459.70	540.97
460.07	535.11
460.43	528.22
460.80	521.75
461.17	516.13
461.54	510.06
461.91	504.37
462.27	498.61
462.64	493.88
463.01	488.48
463.38	483.05
463.74	478.16
464.11	473.79
464.48	469.83
464.85	465.59
465.21	462.34
465.58	458.74
465.95	454.66
466.32	451.38
466.68	448.19
467.05	444.97
467.42	441.84
467.78	438.49
468.15	435.39
468.52	433.14
468.88	430.14
469.25	427.38
469.62	425.22
469.98	422.86
470.35	420.75
470.72	418.84
471.08	416.92
471.45	415.29
471.82	413.48
472.18	411.59
472.55	410.34
472.92	408.81
473.28	407.62
473.65	406.35
474.02	405.13
474.38	404.09
474.75	403.49
475.11	402.63
475.48	402.23
475.85	401.80
476.21	401.55
476.58	401.36
476.94	401.54
477.31	401.58
477.67	401.67
478.04	401.99
478.41	402.44
478.77	403.06
479.14	403.46
479.50	404.28
479.87	405.30
480.23	406.30
480.60	407.26
480.96	408.21
481.33	409.64
481.69	411.07
482.06	412.49
482.42	413.78
482.79	415.43
483.15	417.31
483.52	419.44
483.88	421.49
484.25	423.65
484.61	425.92
484.98	428.36
485.34	431.09
485.71	433.94
486.07	436.99
486.44	440.00
486.80	443.40
487.17	446.87
487.53	450.65
487.90	454.60
488.26	458.91
488.62	463.44
488.99	467.98
489.35	472.73
489.72	477.82
490.08	483.20
490.44	488.68
490.81	494.42
491.17	500.31
491.54	506.61
491.90	513.07
492.26	519.96
492.63	527.16
492.99	534.67
493.36	542.36
493.72	550.45
494.08	558.70
494.45	567.33
494.81	576.37
495.17	585.66
495.54	595.47
495.90	605.69
496.26	616.10
496.63	626.79
496.99	637.89
497.35	649.52
497.72	661.40
498.08	673.63
498.44	686.13
498.80	699.33
499.17	712.86
499.53	726.83
499.89	741.20
500.26	755.75
500.62	770.67
500.98	786.38
501.34	802.12
501.71	818.71
502.07	835.54
502.43	852.82
502.79	870.29
503.16	888.28
503.52	906.44
503.88	925.02
504.24	944.07
504.60	963.33
504.97	983.18
505.33	1003.48
505.69	1024.77
506.05	1046.28
506.41	1067.61
506.78	1089.08
507.14	1111.18
507.50	1133.69
507.86	1156.60
508.22	1179.68
508.59	1202.63
508.95	1226.60
509.31	1250.99
509.67	1276.00
510.03	1300.89
510.39	1325.76
510.75	1350.69
511.12	1375.96
511.48	1401.24
511.84	1426.54
512.20	1452.13
512.56	1478.66
512.92	1504.99
513.28	1530.77
513.64	1556.88
514.00	1583.27
514.37	1609.95
514.73	1636.57
515.09	1662.51
515.45	1688.75
515.81	1715.05
516.17	1741.02
516.53	1766.38
516.89	1791.70
517.25	1817.25
517.61	1842.53
517.97	1868.35
518.33	1893.45
518.69	1918.42
519.05	1943.84
519.41	1969.31
519.77	1994.67
520.13	2018.65
520.49	2042.82
520.85	2067.22
521.21	2091.04
521.57	2115.20
521.93	2138.34
522.29	2161.99
522.65	2185.47
523.01	2208.64
523.37	2231.14
523.73	2254.40
524.09	2277.28
524.45	2299.60
524.81	2321.34
525.17	2342.75
525.53	2363.66
525.89	2384.81
526.25	2405.54
526.61	2424.85
526.97	2444.04
527.33	2463.14
527.68	2481.85
528.04	2500.06
528.40	2516.89
528.76	2534.03
529.12	2550.78
529.48	2567.91
529.84	2582.43
530.20	2597.44
530.56	2611.51
530.91	2625.73
531.27	2639.33
531.63	2652.01
531.99	2664.49
532.35	2676.43
532.71	2688.05
533.07	2699.79
533.42	2709.80
533.78	2720.22
534.14	2731.29
534.50	2741.31
534.86	2751.78
535.21	2760.33
535.57	2768.67
535.93	2777.00
536.29	2783.58
536.65	2789.82
537.00	2794.60
537.36	2800.76
537.72	2805.80
538.08	2810.26
538.44	2813.83
538.79	2817.12
539.15	2819.05
539.51	2820.43
539.87	2820.75
540.22	2819.56
540.58	2818.64
540.94	2818.70
541.29	2817.30
541.65	2814.61
542.01	2811.57
542.37	2807.04
542.72	2803.92
543.08	2799.32
543.44	2794.88
543.79	2789.82
544.15	2784.22
544.51	2778.97
544.87	2772.50
545.22	2765.27
545.58	2758.01
545.94	2750.88
546.29	2742.26
546.65	2733.93
547.01	2725.60
547.36	2717.62
547.72	2709.90
548.07	2700.39
548.43	2689.90
548.79	2679.18
549.14	2668.92
549.50	2658.78
549.86	2647.78
550.21	2635.22
550.57	2623.60
550.92	2610.37
551.28	2597.77
551.64	2585.30
551.99	2572.51
552.35	2559.37
552.70	2546.11
553.06	2533.34
553.41	2520.13
553.77	2506.66
554.13	2493.33
554.48	2478.98
554.84	2464.09
555.19	2449.68
555.55	2435.17
555.90	2420.94
556.26	2407.17
556.61	2392.23
556.97	2376.40
557.32	2360.99
557.68	2345.96
558.03	2330.63
558.39	2316.20
558.74	2302.33
559.10	2286.71
559.45	2271.53
559.81	2257.12
560.16	2242.30
560.52	2227.29
560.87	2212.40
561.23	2197.22
561.58	2182.44
561.94	2167.28
562.29	2151.62
562.64	2136.11
563.00	2120.84
563.35	2105.68
563.71	2090.17
564.06	2074.90
564.42	2060.14
564.77	2045.37
565.12	2030.43
565.48	2015.41
565.83	2000.69
566.19	1985.91
566.54	1971.48
566.89	1956.31
567.25	1940.91
567.60	1926.48
567.96	1911.19
568.31	1894.95
568.66	1879.73
569.02	1864.95
569.37	1850.69
569.72	1837.04
570.08	1822.95
570.43	1808.33
570.78	1793.52
571.14	1778.54
571.49	1763.67
571.84	1749.12
572.20	1733.60
572.55	1718.79
572.90	1704.00
573.26	1689.12
573.61	1673.65
573.96	1658.69
574.31	1643.64
574.67	1628.64
575.02	1613.24
575.37	1597.99
575.72	1583.33
576.08	1568.56
576.43	1553.25
576.78	1538.03
577.13	1522.99
577.49	1508.22
577.84	1493.84
578.19	1479.07
578.54	1464.43
578.90	1449.73
579.25	1434.95
579.60	1421.12
579.95	1407.10
580.30	1393.06
580.66	1378.75
581.01	1364.58
581.36	1350.58
581.71	1337.27
582.06	1323.89
582.42	1310.37
582.77	1297.37
583.12	1284.57
583.47	1271.63
583.82	1258.93
584.17	1245.90
584.53	1232.97
584.88	1220.25
585.23	1207.39
585.58	1194.94
585.93	1182.47
586.28	1170.85
586.63	1159.06
586.98	1147.04
587.34	1135.32
587.69	1123.42
588.04	1111.98
588.39	1100.76
588.74	1089.13
589.09	1077.68
589.44	1065.98
589.79	1054.80
590.14	1043.66
590.49	1032.64
590.84	1021.82
591.19	1011.24
591.54	1000.79
591.89	989.92
592.25	979.47
592.60	968.90
592.95	958.48
593.30	948.29
593.65	937.90
594.00	927.78
594.35	918.50
594.70	908.61
595.05	899.35
595.40	889.81
595.75	880.10
596.10	871.02
596.45	861.94
596.80	853.19
597.15	844.52
597.50	835.89
597.85	827.38
598.19	818.88
598.54	810.37
598.89	802.32
599.24	794.67
599.59	786.87
599.94	779.64
600.29	772.38
600.64	765.02
600.99	757.56
601.34	750.32
601.69	742.60
602.04	735.67
602.39	728.64
602.74	721.78
603.08	715.15
603.43	708.43
603.78	701.70
604.13	695.06
604.48	688.47
604.83	682.06
605.18	675.76
605.53	669.62
605.87	663.43
606.22	657.35
606.57	651.21
606.92	644.97
607.27	638.78
607.62	632.82
607.96	627.10
608.31	621.77
608.66	616.37
609.01	611.20
609.36	606.02
609.70	600.74
610.05	595.57
610.40	590.50
610.75	585.47
611.10	580.64
611.44	575.83
611.79	571.08
612.14	566.25
612.49	561.50
612.83	557.01
613.18	552.54
613.53	548.10
613.88	543.83
614.22	539.85
614.57	535.77
614.92	531.76
615.27	527.88
615.61	523.92
615.96	519.99
616.31	516.05
616.65	512.27
617.00	508.59
617.35	504.93
617.70	501.33
618.04	497.78
618.39	494.34
618.74	491.11
619.08	487.89
619.43	484.75
619.78	481.56
620.12	478.38
620.47	475.44
620.82	472.49
621.16	469.55
621.51	466.68
621.85	463.84
622.20	461.07
622.55	458.24
622.89	455.49
623.24	452.89
623.59	450.32
623.93	447.85
624.28	445.51
624.62	443.38
624.97	441.23
625.32	438.99
625.66	436.70
626.01	434.39
626.35	432.21
626.70	429.97
627.04	427.94
627.39	425.84
627.73	423.80
628.08	421.86
628.43	419.92
628.77	417.87
629.12	415.99
629.46	414.16
629.81	412.46
630.15	410.69
630.50	408.92
630.84	407.22
631.19	405.55
631.53	403.91
631.88	402.13
632.22	400.43
632.57	399.00
632.91	397.54
633.26	396.16
633.60	394.78
633.95	393.48
634.29	392.06
634.64	390.71
634.98	389.21
635.32	387.88
635.67	386.68
636.01	385.48
636.36	384.32
636.70	383.26
637.05	382.00
637.39	380.91
637.73	379.81
638.08	378.78
638.42	377.76
638.77	376.62
639.11	375.46
639.45	374.32
639.80	373.13
640.14	372.05
640.49	370.94
640.83	369.82
641.17	368.74
641.52	367.70
641.86	366.67
642.20	365.84
642.55	364.78
642.89	363.74
643.23	362.80
643.58	361.94
643.92	360.93
644.26	360.02
644.61	359.14
644.95	358.20
645.29	357.19
645.64	356.18
645.98	355.28
646.32	354.48
646.66	353.63
647.01	352.82
647.35	352.05
647.69	351.24
648.04	350.54
648.38	349.77
648.72	349.03
649.06	348.28
649.41	347.45
649.75	346.72
650.09	346.02
650.43	345.25
650.78	344.47
651.12	343.74
651.46	342.99
651.80	342.28
652.14	341.62
652.49	341.01
652.83	340.33
653.17	339.62
653.51	338.95
653.85	338.37
654.20	337.74
654.54	336.99
654.88	336.31
655.22	335.66
655.56	334.99
655.90	334.34
656.25	333.72
656.59	333.11
656.93	332.51
657.27	331.99
657.61	331.39
657.95	330.84
658.29	330.27
658.64	329.74
658.98	329.13
659.32	328.55
659.66	328.01
660.00	327.50
660.34	326.98
660.68	326.40
661.02	325.76
661.36	325.18
661.70	324.65
662.05	324.12
662.39	323.60
662.73	323.16
663.07	322.74
663.41	322.28
663.75	321.77
664.09	321.28
664.43	320.64
664.77	320.13
665.11	319.53
665.45	319.00
665.79	318.50
666.13	317.96
666.47	317.41
666.81	316.83
667.15	316.24
667.49	315.78
667.83	315.35
668.17	314.90
668.51	314.46
668.85	314.06
669.19	313.68
669.53	313.13
669.87	312.57
670.21	312.03
670.55	311.51
670.89	311.13
671.23	310.68
671.57	310.31
671.91	309.95
672.25	309.62
672.58	309.28
672.92	308.84
673.26	308.49
673.60	308.12
673.94	307.75
674.28	307.40
674.62	307.00
674.96	306.56
675.30	306.15
675.64	305.70
675.97	305.24
676.31	304.74
676.65	304.32
676.99	304.01
677.33	303.56
677.67	303.17
678.01	302.66
678.34	302.23
678.68	301.82
679.02	301.35
679.36	300.90
679.70	300.43
680.04	300.03
680.37	299.62
680.71	299.22
681.05	298.86
681.39	298.44
681.73	297.97
682.06	297.55
682.40	297.16
682.74	296.80
683.08	296.49
683.42	296.11
683.75	295.75
684.09	295.27
684.43	294.88
684.77	294.43
685.10	294.05
685.44	293.65
685.78	293.24
686.12	292.84
686.45	292.42
686.79	291.98
687.13	291.57
687.46	291.11
687.80	290.68
688.14	290.18
688.48	289.75
688.81	289.33
689.15	288.99
689.49	288.54
689.82	288.11
690.16	287.58
690.50	287.12
690.83	286.70
691.17	286.25
691.51	285.82
691.84	285.44
692.18	285.00
692.52	284.54
692.85	284.11
693.19	283.74
693.52	283.31
693.86	282.88
694.20	282.45
694.53	282.05
694.87	281.59
695.21	281.19
695.54	280.77
695.88	280.33
696.21	279.84
696.55	279.41
696.88	278.96
697.22	278.54
697.56	278.15
697.89	277.70
698.23	277.30
698.56	276.87
698.90	276.47
699.23	276.04
699.57	275.66
699.90	275.24
700.24	274.79
700.58	274.41
700.91	274.06
701.25	273.82
701.58	273.51
701.92	273.19
702.25	272.82
702.59	272.43
702.92	272.04
703.26	271.64
703.59	271.26
703.93	271.02
704.26	270.66
704.60	270.27
704.93	269.90
705.26	269.51
705.60	269.18
705.93	268.76
706.27	268.46
706.60	268.14
706.94	267.83
707.27	267.44
707.61	267.07
707.94	266.68
708.27	266.15
708.61	265.71
708.94	265.31
709.28	264.95
709.61	264.58
709.94	264.28
710.28	263.96
710.61	263.64
710.95	263.17
711.28	262.95
711.61	262.61
711.95	262.32
712.28	261.98
712.61	261.63
712.95	261.40
713.28	261.14
713.61	260.78
713.95	260.42
714.28	260.12
714.61	259.80
714.95	259.49
715.28	259.19
715.61	258.91
715.95	258.63
716.28	258.32
716.61	258.07
716.95	257.76
717.28	257.46
717.61	257.18
717.94	256.90
718.28	256.50
718.61	256.22
718.94	255.91
719.27	255.66
719.61	255.42
719.94	255.12
720.27	254.77
720.60	254.51
720.94	254.26
721.27	254.02
721.60	253.79
721.93	253.53
722.27	253.33
722.60	253.09
722.93	252.82
723.26	252.61
723.59	252.34
723.93	252.14
724.26	251.93
724.59	251.69
724.92	251.49
725.25	251.33
725.59	251.12
725.92	250.93
726.25	250.70
726.58	250.48
726.91	250.24
727.24	250.05
727.57	249.82
727.91	249.58
728.24	249.39
728.57	249.18
728.90	249.01
729.23	248.74
729.56	248.62
729.89	248.44
730.22	248.22
730.55	248.02
730.89	247.83
731.22	247.63
731.55	247.42
731.88	247.23
732.21	247.00
732.54	246.81
732.87	246.63
733.20	246.47
733.53	246.30
733.86	246.15
734.19	245.95
734.52	245.83
734.85	245.80
735.18	245.60
735.51	245.48
735.84	245.33
736.17	245.24
736.50	244.98
736.83	245.02
737.16	244.87
737.49	244.71
737.82	244.52
738.15	244.39
738.48	244.25
738.81	244.08
739.14	243.90
739.47	243.74
739.80	243.58
740.13	243.44
740.46	243.25
740.79	243.07
741.12	242.92
741.45	242.74
741.78	242.48
742.11	242.38
742.44	242.18
742.77	242.04
743.10	241.87
743.43	241.71
743.75	241.38
744.08	241.50
744.41	241.35
744.74	241.21
745.07	241.03
745.40	240.92
745.73	240.86
746.06	240.75
746.39	240.64
746.71	240.49
747.04	240.33
747.37	240.21
747.70	240.11
748.03	239.99
748.36	239.89
748.68	239.77
749.01	239.60
749.34	239.48
749.67	239.36
750.00	239.27
750.33	239.29
750.65	239.18
750.98	238.81
751.31	238.72
751.64	238.63
751.97	238.62
752.29	238.50
752.62	238.31
752.95	238.18
753.28	238.05
753.60	237.94
753.93	237.89
754.26	237.80
754.59	237.64
754.91	237.51
755.24	237.40
755.57	237.28
755.90	237.17
756.22	237.05
756.55	236.93
756.88	236.79
757.20	236.57
757.53	236.43
757.86	236.33
758.19	236.24
758.51	236.14
758.84	235.95
759.17	235.84
759.49	235.76
759.82	235.77
760.15	235.70
760.47	235.62
760.80	235.48
761.13	235.42
761.45	235.34
761.78	235.27
762.11	235.19
762.43	235.10
762.76	235.01
763.08	234.96
763.41	234.89
763.74	234.84
764.06	234.76
764.39	234.70
764.71	234.62
765.04	234.53
765.37	234.44
765.69	234.37
766.02	234.29
766.34	234.21
766.67	234.07
767.00	234.02
767.32	234.06
767.65	234.11
767.97	234.02
768.30	233.97
768.62	233.90
768.95	233.81
769.27	233.74
769.60	233.72
769.92	233.62
770.25	233.53
770.57	233.43
770.90	233.37
771.22	233.28
771.55	233.23
771.87	233.18
772.20	233.13
772.52	233.23
772.85	233.39
773.17	233.34
773.50	233.28
773.82	233.19
774.15	233.04
774.47	232.87
774.80	232.79
775.12	232.75
775.45	232.70
775.77	232.68
776.09	232.65
776.42	232.60
776.74	232.60
777.07	232.55
777.39	232.53
777.72	232.46
778.04	232.46
778.36	232.40
778.69	232.37
779.01	232.34
779.33	232.15
779.66	231.90
779.98	231.85
780.31	231.81
780.63	231.86
780.95	231.86
781.28	231.81
781.60	231.77
781.92	231.73
782.25	231.69
782.57	231.67
782.89	231.62
783.22	231.58
783.54	231.51
783.86	231.51
784.19	231.47
784.51	231.50
784.83	231.43
785.16	231.41
785.48	231.37
785.80	231.34
786.12	231.33
786.45	231.31
786.77	231.30
787.09	231.26
787.42	231.16
787.74	231.13
788.06	231.12
788.38	231.10
788.71	231.07
789.03	231.05
789.35	231.03
789.67	230.98
789.99	230.96
790.32	230.93
790.64	230.91
790.96	231.07
791.28	230.98
791.61	230.95
791.93	230.94
792.25	230.91
792.57	231.01
792.89	230.95
793.21	230.94
793.54	230.90
793.86	230.88
794.18	230.86
794.50	230.82
794.82	230.80
795.14	230.80
795.47	230.80
795.79	230.79
796.11	230.73
796.43	230.71
796.75	230.68
797.07	230.66
797.39	230.64
797.71	230.47
798.04	230.45
798.36	230.44
798.68	230.41
799.00	230.41
799.32	230.29
799.64	230.30
799.96	230.27
800.28	230.28
800.60	230.24
800.92	230.24
801.24	230.21
801.56	230.20
801.89	230.16
802.21	230.14
802.53	230.08
802.85	230.10
803.17	230.17
803.49	230.13
803.81	230.10
804.13	230.06
804.45	230.03
804.77	230.03
805.09	230.01
805.41	229.98
805.73	229.93
806.05	229.87
806.37	229.84
806.69	229.81
807.01	229.77
807.33	229.78
807.65	229.70
807.97	229.76
808.28	229.73
808.60	229.71
808.92	229.67
809.24	229.78
809.56	229.73
809.88	229.64
810.20	229.64
810.52	229.66
810.84	229.63
811.16	229.59
811.48	229.56
811.80	229.61
812.12	229.59
812.43	229.62
812.75	229.62
813.07	229.61
813.39	229.61
813.71	229.57
814.03	229.54
814.35	229.53
814.67	229.44
814.98	229.42
815.30	229.40
815.62	229.37
815.94	229.24
816.26	229.25
816.58	229.21
816.89	229.20
817.21	229.15
817.53	229.15
817.85	229.15
818.17	229.13
818.48	229.04
818.80	229.07
819.12	229.02
819.44	228.99
819.76	228.95
820.07	228.94
820.39	228.93
820.71	228.93
821.03	228.93
821.34	228.91
821.66	228.92
821.98	228.93
822.30	228.91
822.61	229.02
822.93	228.98
823.25	228.98
823.57	228.95
823.88	228.96
824.20	228.96
824.52	228.97
824.83	228.95
825.15	228.93
825.47	228.91
825.79	228.92
826.10	228.90
826.42	228.89
826.74	228.89
827.05	228.88
827.37	228.88
827.69	228.85
828.00	228.85
828.32	228.83
828.64	228.81
828.95	228.92
829.27	228.85
829.58	228.85
829.90	228.87
830.22	228.89
830.53	228.86
830.85	228.82
831.17	228.77
831.48	228.77
831.80	228.77
832.11	228.75
832.43	228.72
832.75	228.71
833.06	228.82
833.38	228.77
833.69	228.75
834.01	228.75
834.32	228.75
834.64	228.73
834.96	228.72
835.27	228.72
835.59	228.64
835.90	228.63
836.22	228.61
836.53	228.57
836.85	228.54
837.16	228.71
837.48	228.72
837.79	228.76
838.11	228.77
838.42	228.77
838.74	228.79
839.05	228.78
839.37	228.77
839.68	228.65
840.00	228.65
840.31	228.68
840.63	228.65
840.94	228.64
841.26	228.62
841.57	228.61
841.88	228.62
842.20	228.58
842.51	228.54
842.83	228.53
843.14	228.68
843.46	228.67
843.77	228.57
844.08	228.55
844.40	228.50
844.71	228.48
845.03	228.46
845.34	228.43
845.65	228.42
845.97	228.42
846.28	228.43
846.60	228.43
846.91	228.40
847.22	228.39
847.54	228.41
847.85	228.43
848.16	228.40
848.48	228.37
848.79	228.44
849.10	228.46
849.42	228.48
849.73	228.31
850.04	228.32
850.36	228.26
850.67	228.29
850.98	228.29
851.30	228.30
851.61	228.29
851.92	228.29
852.23	228.35
852.55	228.35
852.86	228.35
853.17	228.34
853.49	228.38
853.80	228.42
854.11	228.42
854.42	228.43
854.74	228.41
855.05	228.42
855.36	228.32
855.67	228.32
855.99	228.30
856.30	228.51
856.61	228.50
856.92	228.51
857.23	228.50
857.55	228.48
857.86	228.45
858.17	228.48
858.48	228.45
858.79	228.39
859.11	228.40
859.42	228.39
859.73	228.37
860.04	228.35
860.35	228.29
860.66	228.24
860.98	228.24
861.29	228.26
861.60	228.24
861.91	228.28
862.22	228.25
862.53	228.23
862.84	228.01
863.16	228.05
863.47	227.99
863.78	227.97
864.09	227.98
864.40	228.00
864.71	228.00
865.02	228.02
865.33	228.00
865.64	227.98
865.95	227.97
866.27	228.08
866.58	228.06
866.89	228.08
867.20	228.09
867.51	228.06
867.82	228.05
868.13	228.09
868.44	228.05
868.75	228.09
869.06	228.10
869.37	228.12
869.68	228.06
869.99	228.09
870.30	228.11
870.61	228.13
870.92	228.10
871.23	228.08
871.54	228.10
871.85	228.15
872.16	228.17
872.47	228.15
872.78	228.05
873.09	228.06
873.40	228.04
873.71	228.05
874.02	228.06
874.33	228.04
874.64	228.00
874.95	228.02
875.26	227.98
875.56	227.97
875.87	227.96
876.18	227.96
876.49	228.13
876.80	228.10
877.11	228.07
877.42	228.08
877.73	228.09
878.04	228.06
878.35	228.05
878.66	228.05
878.96	228.05
879.27	228.05
879.58	228.04
879.89	228.04
880.20	228.08
880.51	228.08
880.82	228.09
881.12	228.10
881.43	228.06
881.74	228.04
882.05	228.03
882.36	228.03
882.67	228.05
882.97	227.86
883.28	227.85
883.59	227.84
883.90	227.85
884.21	227.87
884.51	227.87
884.82	227.84
885.13	227.84
885.44	227.83
885.74	227.83
886.05	227.82
886.36	227.82
886.67	227.75
886.98	227.85
887.28	227.85
887.59	227.85
887.90	227.87
888.20	227.87
888.51	227.90
888.82	227.88
889.13	227.89
889.43	228.05
889.74	228.04
890.05	228.04
890.35	228.02
890.66	227.99
890.97	227.97
891.28	227.95
891.58	227.95
891.89	227.95
892.20	227.93
892.50	227.92
892.81	227.91
893.12	227.91
893.42	227.81
893.73	227.82
894.04	227.82
894.34	227.83
894.65	227.84
894.95	227.82
895.26	227.82
895.57	227.91
895.87	227.73
896.18	227.76
896.48	227.78
896.79	227.77
897.10	227.80
897.40	227.81
897.71	227.84
898.01	227.82
898.32	227.84
898.63	227.84
898.93	227.86
899.24	227.87
899.54	227.87
899.85	227.87
900.15	227.86
900.46	227.85
900.76	227.85
901.07	227.84
901.38	227.83
901.68	227.84
901.99	227.75
902.29	227.76
902.60	227.74
902.90	227.72
903.21	227.72
903.51	227.69
903.82	227.72
904.12	227.71
904.43	227.72
904.73	227.71
905.03	227.72
905.34	227.89
905.64	227.87
905.95	227.86
906.25	227.86
906.56	227.86
906.86	227.87
907.17	227.85
907.47	227.86
907.77	227.86
908.08	227.84
908.38	227.85
908.69	227.84
908.99	227.88
909.30	227.89
909.60	227.90
909.90	227.90
910.21	227.86
910.51	227.83
910.81	227.83
911.12	227.84
911.42	227.84
911.73	227.64
912.03	227.66
912.33	227.70
912.64	227.69
912.94	227.66
913.24	227.63
913.55	227.61
913.85	227.60
914.15	227.63
914.46	227.66
914.76	227.64
915.06	227.63
915.37	227.60
915.67	227.59
915.97	227.58
916.27	227.57
916.58	227.57
916.88	227.58
917.18	227.57
917.49	227.68
917.79	227.67
918.09	227.70
918.39	227.74
918.70	227.72
919.00	227.73
919.30	227.82
919.60	227.82
919.91	227.80
920.21	227.81
920.51	227.77
920.81	227.75
921.12	227.77
921.42	227.77
921.72	227.79
922.02	227.80
922.32	227.82
922.63	227.82
922.93	227.91
923.23	227.91
923.53	227.90
923.83	227.79
924.13	227.81
924.44	227.81
924.74	227.84
925.04	227.88
925.34	227.87
925.64	227.80
925.94	227.79
926.24	227.91
926.55	227.90
926.85	227.93
927.15	227.94
927.45	227.94
927.75	227.93
928.05	227.93
928.35	227.93
928.65	227.95
928.95	227.97
929.26	227.89
929.56	227.92
929.86	227.95
930.16	227.93
930.46	227.91
930.76	227.92
931.06	227.83
931.36	227.77
931.66	227.81
931.96	227.82
932.26	227.84
932.56	227.75
932.86	227.78
933.16	227.77
933.46	227.75
933.76	227.73
934.06	227.76
934.36	227.82
934.66	227.81
934.96	227.78
935.26	227.80
935.56	227.82
935.86	227.77
936.16	227.75
936.46	227.74
936.76	227.72
937.06	227.70
937.36	227.72
937.66	227.74
937.96	227.72
938.26	227.69
938.56	227.68
938.86	227.69
939.16	227.71
939.46	227.73
939.76	227.73
940.06	227.74
940.35	227.71
940.65	227.62
940.95	227.63
941.25	227.59
941.55	227.57
941.85	227.56
942.15	227.60
942.45	227.65
942.75	227.65
943.04	227.66
943.34	227.69
943.64	227.67
943.94	227.64
944.24	227.65
944.54	227.67
944.84	227.67
945.13	227.64
945.43	227.62
945.73	227.60
946.03	227.59
946.33	227.56
946.62	227.55
946.92	227.55
947.22	227.56
947.52	227.58
947.82	227.59
948.11	227.57
948.41	227.53
948.71	227.47
949.01	227.49
949.31	227.48
949.60	227.46
949.90	227.49
950.20	227.48
950.50	227.46
950.79	227.44
951.09	227.47
951.39	227.46
951.69	227.44
951.98	227.48
952.28	227.49
952.58	227.50
952.87	227.50
953.17	227.52
953.47	227.49
953.76	227.49
954.06	227.45
954.36	227.42
954.66	227.43
954.95	227.47
955.25	227.47
955.55	227.49
955.84	227.45
956.14	227.48
956.44	227.49
956.73	227.47
957.03	227.47
957.32	227.47
957.62	227.46
957.92	227.50
958.21	227.47
958.51	227.67
958.81	227.70
959.10	227.71
959.40	227.74
959.69	227.76
959.99	227.78
960.29	227.79
960.58	227.79
960.88	227.87
961.17	227.84
961.47	227.86
961.76	227.83
962.06	227.87
962.36	227.85
962.65	227.85
962.95	227.88
963.24	227.86
963.54	227.86
963.83	227.89
964.13	227.88
964.42	227.87
964.72	227.71
965.01	227.71
965.31	227.69
965.60	227.64
965.90	227.76
966.19	227.72
966.49	227.74
966.78	227.73
967.08	227.71
967.37	227.72
967.67	227.68
967.96	227.71
968.26	227.70
968.55	227.72
968.85	227.72
969.14	227.72
969.43	227.71
969.73	227.70
970.02	227.68
970.32	227.67
970.61	227.63
970.91	227.59
971.20	227.57
971.49	227.56
971.79	227.59
972.08	227.45
972.38	227.47
972.67	227.45
972.96	227.47
973.26	227.43
973.55	227.48
973.85	227.49
974.14	227.47
974.43	227.48
974.73	227.45
975.02	227.42
975.31	227.42
975.61	227.42
975.90	227.41
976.19	227.39
976.49	227.41
976.78	227.41
977.07	227.41
977.37	227.42
977.66	227.44
977.95	227.41
978.24	227.42
978.54	227.46
978.83	227.46
979.12	227.45
979.42	227.45
979.71	227.41
980.00	227.40
980.29	227.41
980.59	227.37
980.88	227.41
981.17	227.41
981.46	227.41
981.76	227.41
982.05	227.46
982.34	227.48
982.63	227.48
982.93	227.48
983.22	227.52
983.51	227.54
983.80	227.55
984.09	227.56
984.39	227.55
984.68	227.53
984.97	227.53
985.26	227.51
985.55	227.53
985.85	227.49
986.14	227.52
986.43	227.55
986.72	227.53
987.01	227.48
987.30	227.49
987.59	227.47
987.89	227.47
988.18	227.42
988.47	227.39
988.76	227.38
989.05	227.37
989.34	227.34
989.63	227.37
989.92	227.35
990.22	227.33
990.51	227.33
990.80	227.31
991.09	227.32
991.38	227.36
991.67	227.33
991.96	227.31
992.25	227.32
992.54	227.28
992.83	227.29
993.12	227.30
993.41	227.32
993.70	227.41
993.99	227.44
994.28	227.48
994.58	227.52
994.87	227.50
995.16	227.50
995.45	227.49
995.74	227.43
996.03	227.45
996.32	227.48
996.61	227.53
996.90	227.53
997.19	227.53
997.48	227.53
997.77	227.53
998.06	227.55
998.34	227.53
998.63	227.54
998.92	227.55
999.21	227.57
999.50	227.56
999.79	227.50
1000.08	227.50
1000.37	227.50
1000.66	227.48
1000.95	227.53
1001.24	227.54
1001.53	227.56
1001.82	227.56
1002.11	227.53
1002.40	227.53
1002.68	227.57
1002.97	227.71
1003.26	227.68
1003.55	227.64
1003.84	227.66
1004.13	227.72
1004.42	227.73
1004.71	227.73
1004.99	227.72
1005.28	227.76
1005.57	227.75
1005.86	227.73
1006.15	227.71
1006.44	227.68
1006.72	227.69
1007.01	227.65
1007.30	227.64
1007.59	227.62
1007.88	227.63
1008.17	227.64
1008.45	227.61
1008.74	227.54
1009.03	227.45
1009.32	227.44
1009.60	227.45
1009.89	227.43
1010.18	227.35
1010.47	227.33
1010.76	227.33
1011.04	227.32
1011.33	227.31
1011.62	227.32
1011.91	227.33
1012.19	227.35
1012.48	227.35
1012.77	227.35
1013.05	227.42
1013.34	227.41
1013.63	227.41
1013.92	227.42
1014.20	227.40
1014.49	227.42
1014.78	227.43
1015.06	227.37
1015.35	227.37
1015.64	227.40
1015.92	227.44
1016.21	227.45
1016.50	227.45
1016.78	227.48
1017.07	227.49
1017.36	227.47
1017.64	227.44
1017.93	227.46
1018.22	227.43
1018.50	227.43
1018.79	227.42
1019.08	227.35
1019.36	227.36
1019.65	227.35
1019.93	227.40
1020.22	227.42
1020.51	227.51
1020.79	227.49
1021.08	227.06
1021.36	227.04
1021.65	227.28
1021.94	227.33
1022.22	227.49
1022.51	227.07
1022.79	228.24
1023.08	227.61
1023.36	229.51
1023.65	227.04
>>>>>End Processed Spectral Data<<<<<
