SpectraSuite Data File
++++++++++++++++++++++++++++++++++++
Date: Tue Oct 06 13:58:07 EDT 2015
User: lab3
Dark Spectrum Present: No
Reference Spectrum Present: No
Number of Sampled Component Spectra: 1
Spectrometers: USB2E7196
Integration Time (usec): 66000 (USB2E7196)
Spectra Averaged: 1000 (USB2E7196)
Boxcar Smoothing: 10 (USB2E7196)
Correct for Electrical Dark: No (USB2E7196)
Strobe/Lamp Enabled: No (USB2E7196)
Correct for Detector Non-linearity: No (USB2E7196)
Correct for Stray Light: No (USB2E7196)
Number of Pixels in Processed Spectrum: 2048
>>>>>Begin Processed Spectral Data<<<<<
339.09	0.00
339.48	215.53
339.86	216.96
340.24	218.42
340.63	219.74
341.01	224.02
341.39	222.51
341.78	224.04
342.16	225.41
342.54	225.70
342.93	214.05
343.31	224.86
343.69	225.40
344.07	225.88
344.46	226.33
344.84	226.73
345.22	226.92
345.60	227.20
345.99	227.40
346.37	227.54
346.75	227.65
347.13	227.74
347.52	227.82
347.90	227.94
348.28	227.99
348.66	228.08
349.05	228.07
349.43	228.14
349.81	228.20
350.19	228.26
350.57	228.34
350.96	228.44
351.34	228.54
351.72	228.63
352.10	228.74
352.48	228.80
352.87	228.86
353.25	228.93
353.63	228.98
354.01	229.04
354.39	229.12
354.77	229.19
355.15	229.31
355.54	229.35
355.92	229.34
356.30	229.42
356.68	229.59
357.06	229.68
357.44	229.71
357.82	229.77
358.20	229.98
358.58	230.04
358.97	230.11
359.35	230.21
359.73	230.30
360.11	230.35
360.49	230.42
360.87	230.47
361.25	230.53
361.63	230.64
362.01	230.70
362.39	230.71
362.77	230.77
363.15	230.77
363.53	230.80
363.91	230.86
364.29	230.88
364.67	230.73
365.05	230.76
365.43	230.81
365.81	230.85
366.19	230.79
366.57	230.87
366.95	230.86
367.33	230.82
367.71	230.82
368.09	230.85
368.47	230.84
368.85	230.82
369.23	230.85
369.61	230.76
369.99	230.80
370.37	230.82
370.75	230.93
371.13	230.90
371.51	230.86
371.89	230.84
372.27	230.82
372.65	230.81
373.03	230.76
373.41	230.71
373.78	230.66
374.16	230.54
374.54	230.43
374.92	230.38
375.30	230.35
375.68	230.27
376.06	230.23
376.44	230.17
376.82	230.14
377.19	230.10
377.57	230.05
377.95	229.94
378.33	229.87
378.71	229.67
379.09	229.63
379.47	229.62
379.84	229.55
380.22	229.50
380.60	229.42
380.98	229.38
381.36	229.32
381.73	229.26
382.11	229.24
382.49	229.21
382.87	229.16
383.25	229.12
383.62	229.29
384.00	229.21
384.38	229.18
384.76	229.18
385.13	229.19
385.51	229.15
385.89	229.10
386.27	229.08
386.64	229.08
387.02	229.03
387.40	228.98
387.78	228.97
388.15	228.94
388.53	228.92
388.91	228.90
389.29	228.87
389.66	228.89
390.04	228.86
390.42	228.88
390.79	228.87
391.17	228.85
391.55	228.63
391.92	228.64
392.30	228.66
392.68	228.61
393.05	228.59
393.43	228.61
393.81	228.62
394.18	228.60
394.56	228.61
394.94	228.67
395.31	228.69
395.69	228.77
396.06	228.81
396.44	228.85
396.82	228.88
397.19	229.01
397.57	229.02
397.95	229.07
398.32	229.06
398.70	229.14
399.07	229.24
399.45	229.32
399.82	229.38
400.20	229.43
400.58	229.52
400.95	229.54
401.33	229.67
401.70	229.90
402.08	230.04
402.45	230.17
402.83	230.33
403.20	230.48
403.58	230.60
403.95	230.81
404.33	231.03
404.71	231.24
405.08	231.55
405.46	231.81
405.83	232.09
406.21	232.38
406.58	232.70
406.96	233.02
407.33	233.39
407.70	233.81
408.08	234.39
408.45	234.89
408.83	235.43
409.20	235.94
409.58	236.40
409.95	237.02
410.33	237.69
410.70	238.33
411.08	239.09
411.45	239.90
411.82	240.71
412.20	241.63
412.57	242.73
412.95	243.61
413.32	244.74
413.69	245.91
414.07	247.15
414.44	248.51
414.82	249.90
415.19	251.52
415.56	253.18
415.94	254.89
416.31	256.82
416.68	258.78
417.06	261.01
417.43	263.11
417.81	265.52
418.18	267.98
418.55	270.68
418.93	273.48
419.30	276.41
419.67	279.52
420.04	282.71
420.42	286.07
420.79	289.93
421.16	293.83
421.54	297.78
421.91	301.91
422.28	306.20
422.66	310.81
423.03	315.19
423.40	319.79
423.77	324.71
424.15	329.72
424.52	334.93
424.89	340.58
425.26	346.18
425.64	351.41
426.01	357.24
426.38	363.21
426.75	369.33
427.13	375.59
427.50	382.14
427.87	388.91
428.24	395.70
428.61	402.22
428.99	409.26
429.36	417.03
429.73	424.47
430.10	431.84
430.47	439.40
430.85	447.24
431.22	455.60
431.59	464.13
431.96	472.49
432.33	481.78
432.70	490.61
433.08	501.12
433.45	510.98
433.82	520.67
434.19	531.53
434.56	542.23
434.93	552.59
435.30	562.89
435.68	574.61
436.05	586.04
436.42	597.48
436.79	607.95
437.16	619.19
437.53	631.32
437.90	643.50
438.27	655.38
438.64	668.11
439.01	679.76
439.38	690.54
439.75	700.91
440.13	712.69
440.50	723.90
440.87	732.80
441.24	742.61
441.61	753.39
441.98	761.31
442.35	770.70
442.72	780.31
443.09	789.56
443.46	795.65
443.83	800.23
444.20	803.94
444.57	809.44
444.94	812.84
445.31	816.21
445.68	819.08
446.05	821.25
446.42	821.04
446.79	820.59
447.16	820.20
447.53	819.99
447.90	816.66
448.27	813.38
448.64	808.26
449.01	804.87
449.37	797.61
449.74	791.10
450.11	782.59
450.48	773.16
450.85	763.63
451.22	755.31
451.59	747.27
451.96	740.13
452.33	729.59
452.70	720.16
453.07	708.74
453.43	697.37
453.80	686.29
454.17	675.70
454.54	665.81
454.91	654.62
455.28	643.96
455.65	633.89
456.02	623.33
456.38	614.78
456.75	603.71
457.12	594.79
457.49	585.75
457.86	577.24
458.23	569.80
458.59	561.54
458.96	553.12
459.33	545.68
459.70	538.10
460.07	532.23
460.43	525.37
460.80	518.92
461.17	513.26
461.54	507.27
461.91	501.62
462.27	495.91
462.64	491.22
463.01	485.87
463.38	480.55
463.74	475.70
464.11	471.45
464.48	467.61
464.85	463.43
465.21	460.22
465.58	456.68
465.95	452.63
466.32	449.39
466.68	446.22
467.05	443.02
467.42	439.90
467.78	436.59
468.15	433.53
468.52	431.29
468.88	428.34
469.25	425.62
469.62	423.49
469.98	421.13
470.35	419.02
470.72	417.15
471.08	415.19
471.45	413.58
471.82	411.74
472.18	409.84
472.55	408.61
472.92	407.10
473.28	405.88
473.65	404.57
474.02	403.38
474.38	402.36
474.75	401.74
475.11	400.86
475.48	400.44
475.85	400.03
476.21	399.77
476.58	399.62
476.94	399.79
477.31	399.82
477.67	399.95
478.04	400.25
478.41	400.64
478.77	401.24
479.14	401.59
479.50	402.35
479.87	403.32
480.23	404.29
480.60	405.21
480.96	406.17
481.33	407.60
481.69	408.98
482.06	410.34
482.42	411.63
482.79	413.19
483.15	415.04
483.52	417.13
483.88	419.16
484.25	421.31
484.61	423.56
484.98	425.93
485.34	428.62
485.71	431.41
486.07	434.40
486.44	437.31
486.80	440.63
487.17	443.97
487.53	447.66
487.90	451.48
488.26	455.71
488.62	460.10
488.99	464.53
489.35	469.23
489.72	474.31
490.08	479.62
490.44	485.05
490.81	490.60
491.17	496.30
491.54	502.39
491.90	508.60
492.26	515.24
492.63	522.20
492.99	529.44
493.36	536.96
493.72	544.91
494.08	552.97
494.45	561.42
494.81	570.33
495.17	579.39
495.54	588.99
495.90	598.93
496.26	609.16
496.63	619.62
496.99	630.45
497.35	641.68
497.72	653.29
498.08	665.33
498.44	677.67
498.80	690.80
499.17	704.24
499.53	718.16
499.89	732.39
500.26	746.74
500.62	761.38
500.98	776.70
501.34	792.20
501.71	808.46
502.07	824.96
502.43	841.90
502.79	858.98
503.16	876.53
503.52	894.33
503.88	912.59
504.24	931.28
504.60	950.24
504.97	969.58
505.33	989.44
505.69	1010.22
506.05	1031.07
506.41	1051.79
506.78	1072.81
507.14	1094.63
507.50	1116.95
507.86	1139.71
508.22	1162.58
508.59	1185.28
508.95	1208.77
509.31	1232.71
509.67	1257.31
510.03	1281.79
510.39	1306.67
510.75	1331.54
511.12	1356.50
511.48	1381.46
511.84	1406.53
512.20	1431.96
512.56	1457.96
512.92	1483.70
513.28	1509.12
513.64	1534.94
514.00	1560.82
514.37	1586.94
514.73	1612.74
515.09	1638.04
515.45	1663.55
515.81	1689.15
516.17	1714.82
516.53	1739.85
516.89	1764.79
517.25	1789.86
517.61	1814.74
517.97	1839.78
518.33	1864.48
518.69	1889.10
519.05	1913.92
519.41	1938.56
519.77	1963.20
520.13	1987.48
520.49	2011.58
520.85	2035.72
521.21	2059.62
521.57	2083.77
521.93	2106.84
522.29	2130.38
522.65	2153.52
523.01	2176.45
523.37	2198.54
523.73	2221.02
524.09	2243.64
524.45	2266.31
524.81	2288.12
525.17	2309.76
525.53	2330.72
525.89	2351.92
526.25	2372.73
526.61	2392.38
526.97	2412.27
527.33	2431.69
527.68	2450.30
528.04	2468.29
528.40	2485.33
528.76	2502.85
529.12	2519.16
529.48	2535.89
529.84	2551.40
530.20	2567.89
530.56	2583.37
530.91	2598.76
531.27	2613.19
531.63	2626.56
531.99	2639.63
532.35	2651.15
532.71	2662.73
533.07	2674.66
533.42	2685.01
533.78	2696.03
534.14	2707.29
534.50	2717.18
534.86	2727.20
535.21	2735.20
535.57	2743.28
535.93	2751.76
536.29	2759.13
536.65	2766.77
537.00	2772.26
537.36	2778.10
537.72	2782.23
538.08	2786.08
538.44	2789.02
538.79	2792.36
539.15	2795.08
539.51	2797.20
539.87	2799.94
540.22	2800.58
540.58	2801.61
540.94	2802.35
541.29	2801.64
541.65	2799.50
542.01	2797.33
542.37	2794.18
542.72	2792.82
543.08	2790.18
543.44	2787.29
543.79	2782.57
544.15	2777.77
544.51	2773.83
544.87	2767.81
545.22	2761.26
545.58	2754.89
545.94	2749.31
546.29	2742.00
546.65	2734.03
547.01	2726.09
547.36	2717.81
547.72	2709.46
548.07	2699.96
548.43	2690.14
548.79	2679.28
549.14	2669.42
549.50	2659.49
549.86	2648.83
550.21	2636.28
550.57	2625.09
550.92	2612.15
551.28	2599.89
551.64	2587.81
551.99	2575.78
552.35	2563.93
552.70	2551.87
553.06	2540.10
553.41	2527.29
553.77	2514.05
554.13	2501.08
554.48	2487.31
554.84	2473.05
555.19	2459.77
555.55	2445.64
555.90	2431.76
556.26	2418.83
556.61	2405.15
556.97	2390.47
557.32	2376.14
557.68	2362.06
558.03	2347.31
558.39	2333.44
558.74	2319.84
559.10	2304.13
559.45	2288.96
559.81	2274.53
560.16	2259.69
560.52	2244.60
560.87	2230.21
561.23	2215.41
561.58	2200.91
561.94	2185.77
562.29	2170.75
562.64	2155.64
563.00	2140.69
563.35	2126.29
563.71	2111.66
564.06	2096.53
564.42	2081.92
564.77	2067.41
565.12	2053.32
565.48	2039.15
565.83	2024.58
566.19	2010.14
566.54	1996.29
566.89	1981.17
567.25	1965.57
567.60	1951.19
567.96	1936.21
568.31	1920.65
568.66	1905.89
569.02	1891.19
569.37	1876.64
569.72	1862.40
570.08	1848.01
570.43	1833.51
570.78	1818.27
571.14	1803.03
571.49	1788.26
571.84	1774.29
572.20	1759.00
572.55	1743.91
572.90	1728.31
573.26	1712.72
573.61	1696.81
573.96	1681.55
574.31	1666.97
574.67	1652.85
575.02	1637.91
575.37	1622.71
575.72	1607.43
576.08	1592.49
576.43	1577.61
576.78	1562.77
577.13	1547.99
577.49	1533.20
577.84	1518.43
578.19	1503.74
578.54	1489.13
578.90	1474.44
579.25	1459.20
579.60	1445.21
579.95	1431.12
580.30	1417.23
580.66	1403.46
581.01	1389.86
581.36	1376.07
581.71	1362.16
582.06	1348.32
582.42	1334.66
582.77	1321.35
583.12	1308.33
583.47	1295.19
583.82	1282.16
584.17	1269.19
584.53	1256.19
584.88	1243.68
585.23	1230.89
585.58	1218.42
585.93	1205.97
586.28	1194.07
586.63	1182.05
586.98	1169.89
587.34	1158.10
587.69	1146.07
588.04	1134.35
588.39	1122.83
588.74	1111.26
589.09	1100.04
589.44	1088.31
589.79	1077.13
590.14	1066.13
590.49	1055.17
590.84	1044.54
591.19	1033.96
591.54	1023.32
591.89	1012.53
592.25	1001.72
592.60	990.91
592.95	980.36
593.30	969.86
593.65	959.24
594.00	948.92
594.35	939.28
594.70	929.17
595.05	919.79
595.40	910.20
595.75	900.46
596.10	891.17
596.45	881.77
596.80	872.74
597.15	863.72
597.50	854.73
597.85	846.10
598.19	837.40
598.54	828.68
598.89	820.17
599.24	812.06
599.59	804.06
599.94	796.57
600.29	788.88
600.64	781.28
600.99	773.67
601.34	766.32
601.69	758.36
602.04	750.99
602.39	743.72
602.74	736.71
603.08	729.76
603.43	722.85
603.78	716.05
604.13	709.43
604.48	702.77
604.83	696.36
605.18	689.93
605.53	683.65
605.87	677.25
606.22	671.11
606.57	664.91
606.92	658.57
607.27	652.41
607.62	646.57
607.96	640.83
608.31	635.39
608.66	629.78
609.01	624.44
609.36	619.31
609.70	614.05
610.05	608.76
610.40	603.62
610.75	598.39
611.10	593.50
611.44	588.52
611.79	583.66
612.14	578.77
612.49	573.85
612.83	569.13
613.18	564.69
613.53	560.22
613.88	555.80
614.22	551.65
614.57	547.35
614.92	543.09
615.27	538.96
615.61	534.84
615.96	530.88
616.31	526.92
616.65	522.96
617.00	519.10
617.35	515.33
617.70	511.64
618.04	508.12
618.39	504.49
618.74	501.02
619.08	497.47
619.43	494.02
619.78	490.72
620.12	487.43
620.47	484.29
620.82	481.15
621.16	478.12
621.51	475.17
621.85	472.27
622.20	469.44
622.55	466.59
622.89	463.80
623.24	461.12
623.59	458.47
623.93	455.86
624.28	453.36
624.62	451.07
624.97	448.76
625.32	446.28
625.66	443.84
626.01	441.44
626.35	439.26
626.70	436.99
627.04	434.89
627.39	432.69
627.73	430.52
628.08	428.48
628.43	426.47
628.77	424.44
629.12	422.54
629.46	420.64
629.81	418.85
630.15	416.96
630.50	415.11
630.84	413.33
631.19	411.61
631.53	409.93
631.88	408.06
632.22	406.30
632.57	404.89
632.91	403.44
633.26	402.05
633.60	400.59
633.95	399.21
634.29	397.71
634.64	396.31
634.98	394.76
635.32	393.37
635.67	392.07
636.01	390.77
636.36	389.49
636.70	388.33
637.05	387.03
637.39	385.86
637.73	384.71
638.08	383.60
638.42	382.48
638.77	381.28
639.11	380.04
639.45	378.89
639.80	377.66
640.14	376.50
640.49	375.30
640.83	374.16
641.17	373.03
641.52	371.91
641.86	370.86
642.20	370.00
642.55	368.93
642.89	367.88
643.23	366.84
643.58	365.92
643.92	364.85
644.26	363.85
644.61	362.93
644.95	361.95
645.29	360.96
645.64	359.97
645.98	359.02
646.32	358.19
646.66	357.27
647.01	356.35
647.35	355.51
647.69	354.67
648.04	353.86
648.38	353.01
648.72	352.23
649.06	351.45
649.41	350.61
649.75	349.82
650.09	349.07
650.43	348.34
650.78	347.52
651.12	346.76
651.46	346.03
651.80	345.30
652.14	344.58
652.49	343.90
652.83	343.16
653.17	342.46
653.51	341.78
653.85	341.18
654.20	340.57
654.54	339.84
654.88	339.17
655.22	338.52
655.56	337.80
655.90	337.10
656.25	336.41
656.59	335.76
656.93	335.15
657.27	334.57
657.61	333.89
657.95	333.32
658.29	332.70
658.64	332.18
658.98	331.57
659.32	330.95
659.66	330.36
660.00	329.80
660.34	329.23
660.68	328.63
661.02	327.98
661.36	327.35
661.70	326.77
662.05	326.19
662.39	325.66
662.73	325.23
663.07	324.81
663.41	324.32
663.75	323.76
664.09	323.21
664.43	322.59
664.77	322.10
665.11	321.49
665.45	320.96
665.79	320.39
666.13	319.84
666.47	319.31
666.81	318.73
667.15	318.14
667.49	317.65
667.83	317.21
668.17	316.74
668.51	316.30
668.85	315.88
669.19	315.52
669.53	315.00
669.87	314.48
670.21	314.00
670.55	313.54
670.89	313.21
671.23	312.78
671.57	312.37
671.91	311.97
672.25	311.60
672.58	311.22
672.92	310.77
673.26	310.38
673.60	309.98
673.94	309.60
674.28	309.24
674.62	308.87
674.96	308.42
675.30	308.01
675.64	307.59
675.97	307.14
676.31	306.63
676.65	306.19
676.99	305.83
677.33	305.34
677.67	304.89
678.01	304.34
678.34	303.90
678.68	303.48
679.02	303.00
679.36	302.55
679.70	302.08
680.04	301.64
680.37	301.20
680.71	300.78
681.05	300.37
681.39	299.92
681.73	299.43
682.06	298.97
682.40	298.54
682.74	298.14
683.08	297.80
683.42	297.36
683.75	296.96
684.09	296.44
684.43	295.98
684.77	295.52
685.10	295.13
685.44	294.73
685.78	294.31
686.12	293.92
686.45	293.49
686.79	293.03
687.13	292.63
687.46	292.17
687.80	291.73
688.14	291.24
688.48	290.80
688.81	290.38
689.15	290.01
689.49	289.55
689.82	289.07
690.16	288.53
690.50	288.11
690.83	287.67
691.17	287.22
691.51	286.80
691.84	286.43
692.18	285.99
692.52	285.53
692.85	285.08
693.19	284.72
693.52	284.32
693.86	283.92
694.20	283.49
694.53	283.09
694.87	282.65
695.21	282.23
695.54	281.82
695.88	281.36
696.21	280.86
696.55	280.44
696.88	280.02
697.22	279.60
697.56	279.20
697.89	278.73
698.23	278.32
698.56	277.88
698.90	277.46
699.23	277.03
699.57	276.62
699.90	276.18
700.24	275.69
700.58	275.29
700.91	274.92
701.25	274.67
701.58	274.34
701.92	274.01
702.25	273.64
702.59	273.25
702.92	272.87
703.26	272.49
703.59	272.11
703.93	271.86
704.26	271.50
704.60	271.12
704.93	270.74
705.26	270.33
705.60	270.00
705.93	269.57
706.27	269.25
706.60	268.92
706.94	268.62
707.27	268.21
707.61	267.82
707.94	267.41
708.27	266.88
708.61	266.41
708.94	266.00
709.28	265.63
709.61	265.26
709.94	264.93
710.28	264.62
710.61	264.32
710.95	263.85
711.28	263.63
711.61	263.29
711.95	263.00
712.28	262.67
712.61	262.31
712.95	262.07
713.28	261.82
713.61	261.45
713.95	261.07
714.28	260.79
714.61	260.45
714.95	260.16
715.28	259.85
715.61	259.56
715.95	259.30
716.28	259.00
716.61	258.73
716.95	258.39
717.28	258.06
717.61	257.73
717.94	257.43
718.28	257.02
718.61	256.74
718.94	256.43
719.27	256.16
719.61	255.92
719.94	255.62
720.27	255.27
720.60	255.00
720.94	254.75
721.27	254.50
721.60	254.27
721.93	254.02
722.27	253.84
722.60	253.62
722.93	253.34
723.26	253.11
723.59	252.85
723.93	252.66
724.26	252.44
724.59	252.21
724.92	251.99
725.25	251.84
725.59	251.62
725.92	251.43
726.25	251.21
726.58	250.99
726.91	250.76
727.24	250.55
727.57	250.34
727.91	250.09
728.24	249.90
728.57	249.68
728.90	249.50
729.23	249.23
729.56	249.10
729.89	248.90
730.22	248.68
730.55	248.48
730.89	248.28
731.22	248.07
731.55	247.87
731.88	247.68
732.21	247.44
732.54	247.23
732.87	247.04
733.20	246.86
733.53	246.68
733.86	246.50
734.19	246.31
734.52	246.16
734.85	246.12
735.18	245.91
735.51	245.79
735.84	245.62
736.17	245.50
736.50	245.22
736.83	245.26
737.16	245.11
737.49	244.97
737.82	244.79
738.15	244.66
738.48	244.51
738.81	244.34
739.14	244.16
739.47	243.99
739.80	243.83
740.13	243.68
740.46	243.50
740.79	243.33
741.12	243.18
741.45	243.00
741.78	242.74
742.11	242.65
742.44	242.47
742.77	242.32
743.10	242.15
743.43	242.02
743.75	241.68
744.08	241.81
744.41	241.63
744.74	241.48
745.07	241.31
745.40	241.20
745.73	241.14
746.06	241.03
746.39	240.93
746.71	240.78
747.04	240.63
747.37	240.48
747.70	240.38
748.03	240.26
748.36	240.17
748.68	240.04
749.01	239.87
749.34	239.75
749.67	239.63
750.00	239.54
750.33	239.54
750.65	239.44
750.98	239.07
751.31	238.98
751.64	238.88
751.97	238.87
752.29	238.74
752.62	238.54
752.95	238.42
753.28	238.28
753.60	238.16
753.93	238.10
754.26	238.02
754.59	237.85
754.91	237.72
755.24	237.59
755.57	237.50
755.90	237.38
756.22	237.25
756.55	237.11
756.88	236.97
757.20	236.75
757.53	236.60
757.86	236.49
758.19	236.39
758.51	236.29
758.84	236.11
759.17	236.00
759.49	235.92
759.82	235.91
760.15	235.85
760.47	235.75
760.80	235.61
761.13	235.55
761.45	235.47
761.78	235.39
762.11	235.31
762.43	235.20
762.76	235.13
763.08	235.07
763.41	235.01
763.74	234.93
764.06	234.86
764.39	234.78
764.71	234.69
765.04	234.60
765.37	234.50
765.69	234.43
766.02	234.35
766.34	234.27
766.67	234.12
767.00	234.07
767.32	234.10
767.65	234.15
767.97	234.06
768.30	234.01
768.62	233.94
768.95	233.86
769.27	233.78
769.60	233.74
769.92	233.65
770.25	233.55
770.57	233.46
770.90	233.39
771.22	233.32
771.55	233.27
771.87	233.24
772.20	233.18
772.52	233.28
772.85	233.43
773.17	233.38
773.50	233.32
773.82	233.24
774.15	233.09
774.47	232.93
774.80	232.85
775.12	232.81
775.45	232.75
775.77	232.72
776.09	232.70
776.42	232.67
776.74	232.69
777.07	232.64
777.39	232.62
777.72	232.56
778.04	232.55
778.36	232.48
778.69	232.44
779.01	232.41
779.33	232.22
779.66	231.97
779.98	231.91
780.31	231.88
780.63	231.92
780.95	231.90
781.28	231.85
781.60	231.81
781.92	231.76
782.25	231.73
782.57	231.68
782.89	231.62
783.22	231.56
783.54	231.49
783.86	231.47
784.19	231.42
784.51	231.45
784.83	231.39
785.16	231.36
785.48	231.34
785.80	231.30
786.12	231.29
786.45	231.25
786.77	231.24
787.09	231.18
787.42	231.09
787.74	231.08
788.06	231.06
788.38	231.02
788.71	230.99
789.03	230.97
789.35	230.97
789.67	230.93
789.99	230.91
790.32	230.86
790.64	230.84
790.96	230.98
791.28	230.90
791.61	230.87
791.93	230.86
792.25	230.82
792.57	230.91
792.89	230.85
793.21	230.85
793.54	230.81
793.86	230.79
794.18	230.79
794.50	230.72
794.82	230.70
795.14	230.72
795.47	230.72
795.79	230.69
796.11	230.63
796.43	230.61
796.75	230.58
797.07	230.57
797.39	230.55
797.71	230.39
798.04	230.38
798.36	230.37
798.68	230.35
799.00	230.35
799.32	230.24
799.64	230.26
799.96	230.23
800.28	230.24
800.60	230.22
800.92	230.20
801.24	230.18
801.56	230.17
801.89	230.12
802.21	230.12
802.53	230.07
802.85	230.10
803.17	230.17
803.49	230.11
803.81	230.07
804.13	230.05
804.45	230.00
804.77	229.99
805.09	229.97
805.41	229.93
805.73	229.87
806.05	229.81
806.37	229.78
806.69	229.74
807.01	229.70
807.33	229.69
807.65	229.62
807.97	229.69
808.28	229.65
808.60	229.63
808.92	229.58
809.24	229.68
809.56	229.63
809.88	229.54
810.20	229.54
810.52	229.57
810.84	229.53
811.16	229.51
811.48	229.48
811.80	229.52
812.12	229.49
812.43	229.52
812.75	229.51
813.07	229.49
813.39	229.48
813.71	229.46
814.03	229.43
814.35	229.43
814.67	229.33
814.98	229.32
815.30	229.31
815.62	229.27
815.94	229.15
816.26	229.15
816.58	229.11
816.89	229.12
817.21	229.06
817.53	229.06
817.85	229.07
818.17	229.05
818.48	228.96
818.80	229.00
819.12	228.96
819.44	228.92
819.76	228.89
820.07	228.88
820.39	228.86
820.71	228.86
821.03	228.84
821.34	228.82
821.66	228.83
821.98	228.83
822.30	228.81
822.61	228.91
822.93	228.87
823.25	228.86
823.57	228.83
823.88	228.85
824.20	228.84
824.52	228.85
824.83	228.84
825.15	228.82
825.47	228.78
825.79	228.78
826.10	228.77
826.42	228.76
826.74	228.77
827.05	228.75
827.37	228.76
827.69	228.73
828.00	228.74
828.32	228.73
828.64	228.70
828.95	228.79
829.27	228.71
829.58	228.71
829.90	228.73
830.22	228.74
830.53	228.69
830.85	228.66
831.17	228.61
831.48	228.60
831.80	228.61
832.11	228.60
832.43	228.58
832.75	228.57
833.06	228.66
833.38	228.61
833.69	228.60
834.01	228.59
834.32	228.57
834.64	228.55
834.96	228.54
835.27	228.54
835.59	228.47
835.90	228.44
836.22	228.43
836.53	228.39
836.85	228.36
837.16	228.54
837.48	228.55
837.79	228.59
838.11	228.58
838.42	228.57
838.74	228.59
839.05	228.57
839.37	228.56
839.68	228.45
840.00	228.45
840.31	228.47
840.63	228.46
840.94	228.44
841.26	228.42
841.57	228.41
841.88	228.42
842.20	228.39
842.51	228.36
842.83	228.36
843.14	228.51
843.46	228.50
843.77	228.39
844.08	228.38
844.40	228.34
844.71	228.32
845.03	228.30
845.34	228.27
845.65	228.28
845.97	228.27
846.28	228.28
846.60	228.29
846.91	228.26
847.22	228.25
847.54	228.29
847.85	228.31
848.16	228.30
848.48	228.26
848.79	228.34
849.10	228.36
849.42	228.37
849.73	228.21
850.04	228.21
850.36	228.15
850.67	228.17
850.98	228.17
851.30	228.19
851.61	228.19
851.92	228.19
852.23	228.24
852.55	228.26
852.86	228.26
853.17	228.27
853.49	228.30
853.80	228.35
854.11	228.34
854.42	228.35
854.74	228.34
855.05	228.35
855.36	228.25
855.67	228.24
855.99	228.24
856.30	228.45
856.61	228.45
856.92	228.46
857.23	228.45
857.55	228.43
857.86	228.42
858.17	228.44
858.48	228.41
858.79	228.36
859.11	228.37
859.42	228.36
859.73	228.33
860.04	228.32
860.35	228.27
860.66	228.22
860.98	228.22
861.29	228.26
861.60	228.24
861.91	228.29
862.22	228.26
862.53	228.23
862.84	228.01
863.16	228.04
863.47	228.01
863.78	228.00
864.09	228.02
864.40	228.02
864.71	228.02
865.02	228.04
865.33	228.03
865.64	227.99
865.95	227.99
866.27	228.10
866.58	228.07
866.89	228.09
867.20	228.09
867.51	228.04
867.82	228.02
868.13	228.08
868.44	228.03
868.75	228.06
869.06	228.07
869.37	228.10
869.68	228.06
869.99	228.09
870.30	228.09
870.61	228.09
870.92	228.06
871.23	228.05
871.54	228.07
871.85	228.11
872.16	228.13
872.47	228.11
872.78	228.01
873.09	228.04
873.40	228.02
873.71	228.03
874.02	228.05
874.33	228.02
874.64	227.96
874.95	228.00
875.26	227.96
875.56	227.94
875.87	227.93
876.18	227.91
876.49	228.08
876.80	228.06
877.11	228.04
877.42	228.05
877.73	228.04
878.04	228.02
878.35	228.02
878.66	228.02
878.96	228.02
879.27	228.00
879.58	227.99
879.89	227.98
880.20	228.02
880.51	228.02
880.82	228.02
881.12	228.03
881.43	227.99
881.74	227.97
882.05	227.97
882.36	227.98
882.67	227.99
882.97	227.79
883.28	227.78
883.59	227.77
883.90	227.78
884.21	227.82
884.51	227.80
884.82	227.77
885.13	227.77
885.44	227.77
885.74	227.77
886.05	227.76
886.36	227.76
886.67	227.70
886.98	227.79
887.28	227.80
887.59	227.81
887.90	227.82
888.20	227.81
888.51	227.85
888.82	227.82
889.13	227.83
889.43	227.99
889.74	227.97
890.05	227.97
890.35	227.95
890.66	227.92
890.97	227.90
891.28	227.89
891.58	227.89
891.89	227.89
892.20	227.88
892.50	227.87
892.81	227.85
893.12	227.85
893.42	227.75
893.73	227.76
894.04	227.75
894.34	227.77
894.65	227.76
894.95	227.74
895.26	227.75
895.57	227.84
895.87	227.67
896.18	227.70
896.48	227.71
896.79	227.72
897.10	227.74
897.40	227.74
897.71	227.76
898.01	227.73
898.32	227.75
898.63	227.74
898.93	227.74
899.24	227.76
899.54	227.75
899.85	227.75
900.15	227.74
900.46	227.73
900.76	227.74
901.07	227.74
901.38	227.73
901.68	227.75
901.99	227.65
902.29	227.67
902.60	227.65
902.90	227.62
903.21	227.62
903.51	227.61
903.82	227.66
904.12	227.66
904.43	227.68
904.73	227.66
905.03	227.68
905.34	227.86
905.64	227.84
905.95	227.84
906.25	227.84
906.56	227.83
906.86	227.83
907.17	227.81
907.47	227.81
907.77	227.79
908.08	227.74
908.38	227.76
908.69	227.77
908.99	227.81
909.30	227.82
909.60	227.81
909.90	227.80
910.21	227.75
910.51	227.72
910.81	227.72
911.12	227.73
911.42	227.72
911.73	227.53
912.03	227.54
912.33	227.58
912.64	227.56
912.94	227.55
913.24	227.52
913.55	227.51
913.85	227.51
914.15	227.54
914.46	227.57
914.76	227.55
915.06	227.53
915.37	227.50
915.67	227.48
915.97	227.47
916.27	227.46
916.58	227.46
916.88	227.46
917.18	227.45
917.49	227.56
917.79	227.56
918.09	227.59
918.39	227.63
918.70	227.62
919.00	227.64
919.30	227.72
919.60	227.72
919.91	227.70
920.21	227.71
920.51	227.68
920.81	227.67
921.12	227.70
921.42	227.70
921.72	227.71
922.02	227.72
922.32	227.75
922.63	227.76
922.93	227.86
923.23	227.87
923.53	227.85
923.83	227.74
924.13	227.76
924.44	227.76
924.74	227.79
925.04	227.83
925.34	227.83
925.64	227.76
925.94	227.76
926.24	227.86
926.55	227.85
926.85	227.88
927.15	227.88
927.45	227.88
927.75	227.87
928.05	227.87
928.35	227.86
928.65	227.88
928.95	227.90
929.26	227.81
929.56	227.85
929.86	227.87
930.16	227.86
930.46	227.84
930.76	227.84
931.06	227.75
931.36	227.69
931.66	227.73
931.96	227.75
932.26	227.75
932.56	227.68
932.86	227.69
933.16	227.68
933.46	227.66
933.76	227.64
934.06	227.66
934.36	227.73
934.66	227.72
934.96	227.69
935.26	227.70
935.56	227.72
935.86	227.67
936.16	227.66
936.46	227.63
936.76	227.63
937.06	227.60
937.36	227.60
937.66	227.62
937.96	227.59
938.26	227.55
938.56	227.54
938.86	227.56
939.16	227.59
939.46	227.62
939.76	227.63
940.06	227.63
940.35	227.60
940.65	227.51
940.95	227.53
941.25	227.50
941.55	227.48
941.85	227.47
942.15	227.51
942.45	227.55
942.75	227.55
943.04	227.55
943.34	227.59
943.64	227.57
943.94	227.55
944.24	227.55
944.54	227.56
944.84	227.55
945.13	227.53
945.43	227.49
945.73	227.47
946.03	227.45
946.33	227.43
946.62	227.42
946.92	227.42
947.22	227.42
947.52	227.42
947.82	227.45
948.11	227.44
948.41	227.39
948.71	227.34
949.01	227.36
949.31	227.35
949.60	227.33
949.90	227.36
950.20	227.36
950.50	227.37
950.79	227.35
951.09	227.38
951.39	227.37
951.69	227.36
951.98	227.40
952.28	227.42
952.58	227.43
952.87	227.43
953.17	227.46
953.47	227.44
953.76	227.44
954.06	227.41
954.36	227.38
954.66	227.39
954.95	227.43
955.25	227.45
955.55	227.47
955.84	227.46
956.14	227.46
956.44	227.46
956.73	227.43
957.03	227.45
957.32	227.45
957.62	227.45
957.92	227.48
958.21	227.45
958.51	227.66
958.81	227.68
959.10	227.70
959.40	227.74
959.69	227.76
959.99	227.78
960.29	227.79
960.58	227.79
960.88	227.84
961.17	227.82
961.47	227.83
961.76	227.81
962.06	227.84
962.36	227.81
962.65	227.84
962.95	227.86
963.24	227.84
963.54	227.83
963.83	227.85
964.13	227.84
964.42	227.83
964.72	227.67
965.01	227.66
965.31	227.65
965.60	227.58
965.90	227.69
966.19	227.66
966.49	227.67
966.78	227.67
967.08	227.65
967.37	227.65
967.67	227.62
967.96	227.64
968.26	227.63
968.55	227.66
968.85	227.64
969.14	227.63
969.43	227.63
969.73	227.62
970.02	227.60
970.32	227.58
970.61	227.55
970.91	227.51
971.20	227.49
971.49	227.47
971.79	227.50
972.08	227.37
972.38	227.37
972.67	227.36
972.96	227.38
973.26	227.34
973.55	227.41
973.85	227.40
974.14	227.39
974.43	227.39
974.73	227.35
975.02	227.33
975.31	227.34
975.61	227.33
975.90	227.32
976.19	227.31
976.49	227.33
976.78	227.35
977.07	227.34
977.37	227.34
977.66	227.37
977.95	227.34
978.24	227.37
978.54	227.41
978.83	227.40
979.12	227.38
979.42	227.38
979.71	227.33
980.00	227.33
980.29	227.34
980.59	227.31
980.88	227.36
981.17	227.37
981.46	227.38
981.76	227.38
982.05	227.45
982.34	227.45
982.63	227.44
982.93	227.44
983.22	227.50
983.51	227.51
983.80	227.54
984.09	227.56
984.39	227.54
984.68	227.52
984.97	227.54
985.26	227.54
985.55	227.56
985.85	227.53
986.14	227.56
986.43	227.58
986.72	227.57
987.01	227.51
987.30	227.51
987.59	227.49
987.89	227.49
988.18	227.43
988.47	227.42
988.76	227.42
989.05	227.40
989.34	227.36
989.63	227.40
989.92	227.37
990.22	227.34
990.51	227.35
990.80	227.33
991.09	227.34
991.38	227.36
991.67	227.34
991.96	227.33
992.25	227.32
992.54	227.29
992.83	227.31
993.12	227.31
993.41	227.35
993.70	227.43
993.99	227.46
994.28	227.49
994.58	227.51
994.87	227.48
995.16	227.48
995.45	227.46
995.74	227.39
996.03	227.42
996.32	227.45
996.61	227.48
996.90	227.47
997.19	227.47
997.48	227.46
997.77	227.45
998.06	227.47
998.34	227.46
998.63	227.46
998.92	227.45
999.21	227.48
999.50	227.47
999.79	227.40
1000.08	227.39
1000.37	227.40
1000.66	227.39
1000.95	227.45
1001.24	227.46
1001.53	227.49
1001.82	227.50
1002.11	227.45
1002.40	227.47
1002.68	227.50
1002.97	227.63
1003.26	227.61
1003.55	227.59
1003.84	227.60
1004.13	227.66
1004.42	227.65
1004.71	227.65
1004.99	227.64
1005.28	227.68
1005.57	227.66
1005.86	227.64
1006.15	227.63
1006.44	227.59
1006.72	227.62
1007.01	227.58
1007.30	227.57
1007.59	227.56
1007.88	227.55
1008.17	227.56
1008.45	227.51
1008.74	227.45
1009.03	227.36
1009.32	227.36
1009.60	227.35
1009.89	227.34
1010.18	227.26
1010.47	227.26
1010.76	227.26
1011.04	227.26
1011.33	227.25
1011.62	227.27
1011.91	227.29
1012.19	227.30
1012.48	227.31
1012.77	227.30
1013.05	227.38
1013.34	227.38
1013.63	227.37
1013.92	227.40
1014.20	227.38
1014.49	227.41
1014.78	227.43
1015.06	227.38
1015.35	227.38
1015.64	227.41
1015.92	227.44
1016.21	227.46
1016.50	227.46
1016.78	227.49
1017.07	227.50
1017.36	227.47
1017.64	227.45
1017.93	227.45
1018.22	227.42
1018.50	227.41
1018.79	227.41
1019.08	227.34
1019.36	227.34
1019.65	227.32
1019.93	227.36
1020.22	227.39
1020.51	227.47
1020.79	227.45
1021.08	227.02
1021.36	227.12
1021.65	227.45
1021.94	227.20
1022.22	227.37
1022.51	226.97
1022.79	227.98
1023.08	227.62
1023.36	229.55
1023.65	227.08
>>>>>End Processed Spectral Data<<<<<
