SpectraSuite Data File
++++++++++++++++++++++++++++++++++++
Date: Tue Oct 06 16:17:21 EDT 2015
User: lab3
Dark Spectrum Present: No
Reference Spectrum Present: No
Number of Sampled Component Spectra: 1
Spectrometers: USB2E7196
Integration Time (usec): 66000 (USB2E7196)
Spectra Averaged: 1000 (USB2E7196)
Boxcar Smoothing: 10 (USB2E7196)
Correct for Electrical Dark: No (USB2E7196)
Strobe/Lamp Enabled: No (USB2E7196)
Correct for Detector Non-linearity: No (USB2E7196)
Correct for Stray Light: No (USB2E7196)
Number of Pixels in Processed Spectrum: 2048
>>>>>Begin Processed Spectral Data<<<<<
339.09	0.00
339.48	215.86
339.86	217.28
340.24	218.53
340.63	219.98
341.01	223.95
341.39	222.71
341.78	224.29
342.16	225.54
342.54	225.52
342.93	214.22
343.31	225.04
343.69	225.58
344.07	226.03
344.46	226.48
344.84	226.88
345.22	227.08
345.60	227.35
345.99	227.56
346.37	227.71
346.75	227.84
347.13	227.91
347.52	228.00
347.90	228.11
348.28	228.15
348.66	228.24
349.05	228.24
349.43	228.30
349.81	228.37
350.19	228.44
350.57	228.51
350.96	228.60
351.34	228.70
351.72	228.80
352.10	228.91
352.48	228.99
352.87	229.04
353.25	229.12
353.63	229.17
354.01	229.22
354.39	229.30
354.77	229.38
355.15	229.51
355.54	229.55
355.92	229.57
356.30	229.66
356.68	229.83
357.06	229.91
357.44	229.95
357.82	230.01
358.20	230.23
358.58	230.27
358.97	230.34
359.35	230.44
359.73	230.54
360.11	230.59
360.49	230.65
360.87	230.69
361.25	230.75
361.63	230.86
362.01	230.91
362.39	230.93
362.77	230.97
363.15	230.99
363.53	231.04
363.91	231.07
364.29	231.10
364.67	230.96
365.05	230.98
365.43	231.02
365.81	231.06
366.19	231.01
366.57	231.10
366.95	231.09
367.33	231.05
367.71	231.04
368.09	231.06
368.47	231.06
368.85	231.06
369.23	231.08
369.61	231.00
369.99	231.03
370.37	231.04
370.75	231.15
371.13	231.12
371.51	231.06
371.89	231.05
372.27	231.03
372.65	231.02
373.03	230.97
373.41	230.94
373.78	230.89
374.16	230.77
374.54	230.67
374.92	230.62
375.30	230.59
375.68	230.52
376.06	230.49
376.44	230.44
376.82	230.39
377.19	230.35
377.57	230.30
377.95	230.22
378.33	230.16
378.71	229.96
379.09	229.92
379.47	229.89
379.84	229.82
380.22	229.75
380.60	229.67
380.98	229.64
381.36	229.58
381.73	229.51
382.11	229.50
382.49	229.47
382.87	229.42
383.25	229.37
383.62	229.53
384.00	229.45
384.38	229.42
384.76	229.42
385.13	229.43
385.51	229.40
385.89	229.34
386.27	229.31
386.64	229.31
387.02	229.26
387.40	229.21
387.78	229.19
388.15	229.17
388.53	229.13
388.91	229.10
389.29	229.06
389.66	229.06
390.04	229.03
390.42	229.03
390.79	229.03
391.17	229.02
391.55	228.80
391.92	228.80
392.30	228.82
392.68	228.77
393.05	228.77
393.43	228.77
393.81	228.80
394.18	228.77
394.56	228.79
394.94	228.84
395.31	228.84
395.69	228.92
396.06	228.97
396.44	229.02
396.82	229.05
397.19	229.19
397.57	229.21
397.95	229.28
398.32	229.28
398.70	229.36
399.07	229.46
399.45	229.53
399.82	229.60
400.20	229.65
400.58	229.75
400.95	229.76
401.33	229.90
401.70	230.13
402.08	230.28
402.45	230.41
402.83	230.59
403.20	230.78
403.58	230.92
403.95	231.13
404.33	231.34
404.71	231.55
405.08	231.85
405.46	232.10
405.83	232.39
406.21	232.68
406.58	232.99
406.96	233.31
407.33	233.69
407.70	234.12
408.08	234.69
408.45	235.20
408.83	235.75
409.20	236.25
409.58	236.71
409.95	237.34
410.33	238.01
410.70	238.66
411.08	239.41
411.45	240.21
411.82	241.04
412.20	241.98
412.57	243.09
412.95	244.00
413.32	245.14
413.69	246.32
414.07	247.58
414.44	248.97
414.82	250.38
415.19	252.02
415.56	253.69
415.94	255.43
416.31	257.39
416.68	259.36
417.06	261.63
417.43	263.74
417.81	266.18
418.18	268.68
418.55	271.39
418.93	274.22
419.30	277.19
419.67	280.32
420.04	283.55
420.42	286.93
420.79	290.83
421.16	294.75
421.54	298.73
421.91	302.90
422.28	307.22
422.66	311.89
423.03	316.31
423.40	320.97
423.77	325.95
424.15	331.03
424.52	336.30
424.89	342.00
425.26	347.66
425.64	352.92
426.01	358.83
426.38	364.85
426.75	371.06
427.13	377.40
427.50	384.06
427.87	390.94
428.24	397.88
428.61	404.51
428.99	411.68
429.36	419.55
429.73	427.06
430.10	434.54
430.47	442.19
430.85	450.10
431.22	458.52
431.59	467.14
431.96	475.57
432.33	484.94
432.70	493.87
433.08	504.44
433.45	514.38
433.82	524.19
434.19	535.18
434.56	546.02
434.93	556.53
435.30	566.93
435.68	578.76
436.05	590.31
436.42	601.85
436.79	612.40
437.16	623.88
437.53	636.16
437.90	648.45
438.27	660.50
438.64	673.55
439.01	685.36
439.38	696.23
439.75	706.75
440.13	718.73
440.50	730.12
440.87	739.23
441.24	749.29
441.61	760.27
441.98	768.41
442.35	778.09
442.72	787.94
443.09	797.32
443.46	803.48
443.83	808.16
444.20	812.11
444.57	817.80
444.94	821.19
445.31	824.72
445.68	827.80
446.05	830.17
446.42	829.97
446.79	829.57
447.16	829.27
447.53	829.05
447.90	825.68
448.27	822.45
448.64	817.27
449.01	813.76
449.37	806.32
449.74	799.58
450.11	790.78
450.48	781.11
450.85	771.43
451.22	763.10
451.59	754.88
451.96	747.45
452.33	736.59
452.70	726.97
453.07	715.25
453.43	703.55
453.80	692.13
454.17	681.24
454.54	671.17
454.91	659.78
455.28	648.99
455.65	638.82
456.02	628.05
456.38	619.40
456.75	608.28
457.12	599.33
457.49	590.28
457.86	581.71
458.23	574.14
458.59	565.79
458.96	557.23
459.33	549.73
459.70	542.09
460.07	536.29
460.43	529.40
460.80	522.96
461.17	517.35
461.54	511.30
461.91	505.62
462.27	499.83
462.64	495.11
463.01	489.71
463.38	484.26
463.74	479.36
464.11	475.00
464.48	471.06
464.85	466.80
465.21	463.54
465.58	459.92
465.95	455.83
466.32	452.56
466.68	449.37
467.05	446.14
467.42	443.00
467.78	439.63
468.15	436.54
468.52	434.27
468.88	431.26
469.25	428.51
469.62	426.32
469.98	423.98
470.35	421.87
470.72	419.96
471.08	418.04
471.45	416.41
471.82	414.59
472.18	412.67
472.55	411.42
472.92	409.87
473.28	408.66
473.65	407.37
474.02	406.15
474.38	405.09
474.75	404.48
475.11	403.64
475.48	403.22
475.85	402.79
476.21	402.53
476.58	402.34
476.94	402.50
477.31	402.55
477.67	402.61
478.04	402.92
478.41	403.36
478.77	403.97
479.14	404.36
479.50	405.16
479.87	406.18
480.23	407.16
480.60	408.13
480.96	409.09
481.33	410.55
481.69	411.96
482.06	413.36
482.42	414.65
482.79	416.26
483.15	418.15
483.52	420.26
483.88	422.28
484.25	424.44
484.61	426.70
484.98	429.13
485.34	431.85
485.71	434.70
486.07	437.75
486.44	440.76
486.80	444.14
487.17	447.61
487.53	451.38
487.90	455.33
488.26	459.62
488.62	464.13
488.99	468.62
489.35	473.35
489.72	478.44
490.08	483.81
490.44	489.26
490.81	494.96
491.17	500.83
491.54	507.09
491.90	513.52
492.26	520.36
492.63	527.54
492.99	535.05
493.36	542.70
493.72	550.73
494.08	558.95
494.45	567.56
494.81	576.56
495.17	585.81
495.54	595.57
495.90	605.74
496.26	616.09
496.63	626.72
496.99	637.78
497.35	649.30
497.72	661.11
498.08	673.28
498.44	685.69
498.80	698.82
499.17	712.27
499.53	726.14
499.89	740.46
500.26	754.92
500.62	769.72
500.98	785.36
501.34	801.02
501.71	817.50
502.07	834.25
502.43	851.43
502.79	868.78
503.16	886.65
503.52	904.68
503.88	923.16
504.24	942.06
504.60	961.20
504.97	980.96
505.33	1001.12
505.69	1022.33
506.05	1043.70
506.41	1064.92
506.78	1086.28
507.14	1108.25
507.50	1130.59
507.86	1153.34
508.22	1176.26
508.59	1199.04
508.95	1222.87
509.31	1247.13
509.67	1271.98
510.03	1296.72
510.39	1321.42
510.75	1346.12
511.12	1371.28
511.48	1396.45
511.84	1421.60
512.20	1447.12
512.56	1473.57
512.92	1499.83
513.28	1525.46
513.64	1551.48
514.00	1577.80
514.37	1604.33
514.73	1630.81
515.09	1656.65
515.45	1682.76
515.81	1708.94
516.17	1734.86
516.53	1760.09
516.89	1785.26
517.25	1810.63
517.61	1835.78
517.97	1861.46
518.33	1886.54
518.69	1911.39
519.05	1936.72
519.41	1962.17
519.77	1987.47
520.13	2011.31
520.49	2035.30
520.85	2059.60
521.21	2083.28
521.57	2107.20
521.93	2130.18
522.29	2153.72
522.65	2177.03
523.01	2200.08
523.37	2222.42
523.73	2245.46
524.09	2268.17
524.45	2290.31
524.81	2311.89
525.17	2333.26
525.53	2354.01
525.89	2375.05
526.25	2395.62
526.61	2414.65
526.97	2433.70
527.33	2452.54
527.68	2471.05
528.04	2489.08
528.40	2505.78
528.76	2522.87
529.12	2539.51
529.48	2556.56
529.84	2571.00
530.20	2585.87
530.56	2599.79
530.91	2613.99
531.27	2627.56
531.63	2640.19
531.99	2652.72
532.35	2664.74
532.71	2676.27
533.07	2688.08
533.42	2698.03
533.78	2708.39
534.14	2719.57
534.50	2729.52
534.86	2739.98
535.21	2748.54
535.57	2756.85
535.93	2765.09
536.29	2771.55
536.65	2777.80
537.00	2782.55
537.36	2788.67
537.72	2793.78
538.08	2798.37
538.44	2801.93
538.79	2805.18
539.15	2807.11
539.51	2808.29
539.87	2808.45
540.22	2807.15
540.58	2806.12
540.94	2805.99
541.29	2804.54
541.65	2801.79
542.01	2798.72
542.37	2794.18
542.72	2791.10
543.08	2786.45
543.44	2781.94
543.79	2776.90
544.15	2771.30
544.51	2766.04
544.87	2759.54
545.22	2752.25
545.58	2744.89
545.94	2737.74
546.29	2729.10
546.65	2720.79
547.01	2712.51
547.36	2704.62
547.72	2696.95
548.07	2687.47
548.43	2677.08
548.79	2666.48
549.14	2656.27
549.50	2646.13
549.86	2635.12
550.21	2622.59
550.57	2611.10
550.92	2598.01
551.28	2585.47
551.64	2573.07
551.99	2560.38
552.35	2547.40
552.70	2534.28
553.06	2521.62
553.41	2508.44
553.77	2495.07
554.13	2481.84
554.48	2467.64
554.84	2452.80
555.19	2438.42
555.55	2424.04
555.90	2409.94
556.26	2396.18
556.61	2381.30
556.97	2365.57
557.32	2350.19
557.68	2335.19
558.03	2319.99
558.39	2305.68
558.74	2291.89
559.10	2276.38
559.45	2261.24
559.81	2246.76
560.16	2231.93
560.52	2216.95
560.87	2202.15
561.23	2187.05
561.58	2172.35
561.94	2157.27
562.29	2141.67
562.64	2126.30
563.00	2111.06
563.35	2095.97
563.71	2080.57
564.06	2065.35
564.42	2050.66
564.77	2036.08
565.12	2021.21
565.48	2006.19
565.83	1991.47
566.19	1976.74
566.54	1962.28
566.89	1947.17
567.25	1931.94
567.60	1917.59
567.96	1902.40
568.31	1886.22
568.66	1871.04
569.02	1856.33
569.37	1842.15
569.72	1828.61
570.08	1814.59
570.43	1800.10
570.78	1785.43
571.14	1770.55
571.49	1755.79
571.84	1741.27
572.20	1725.73
572.55	1711.02
572.90	1696.29
573.26	1681.49
573.61	1666.11
573.96	1651.26
574.31	1636.32
574.67	1621.35
575.02	1606.04
575.37	1590.88
575.72	1576.35
576.08	1561.57
576.43	1546.29
576.78	1531.13
577.13	1516.18
577.49	1501.47
577.84	1487.15
578.19	1472.38
578.54	1457.75
578.90	1443.06
579.25	1428.36
579.60	1414.68
579.95	1400.77
580.30	1386.83
580.66	1372.58
581.01	1358.47
581.36	1344.56
581.71	1331.32
582.06	1318.01
582.42	1304.58
582.77	1291.66
583.12	1278.93
583.47	1266.15
583.82	1253.55
584.17	1240.57
584.53	1227.65
584.88	1214.98
585.23	1202.20
585.58	1189.84
585.93	1177.43
586.28	1165.93
586.63	1154.24
586.98	1142.27
587.34	1130.58
587.69	1118.74
588.04	1107.33
588.39	1096.13
588.74	1084.53
589.09	1073.16
589.44	1061.51
589.79	1050.38
590.14	1039.30
590.49	1028.33
590.84	1017.56
591.19	1007.00
591.54	996.62
591.89	985.84
592.25	975.44
592.60	964.93
592.95	954.61
593.30	944.53
593.65	934.20
594.00	924.11
594.35	914.86
594.70	905.01
595.05	895.76
595.40	886.28
595.75	876.71
596.10	867.70
596.45	858.65
596.80	849.93
597.15	841.28
597.50	832.64
597.85	824.12
598.19	815.65
598.54	807.25
598.89	799.25
599.24	791.63
599.59	783.84
599.94	776.64
600.29	769.41
600.64	762.08
600.99	754.65
601.34	747.45
601.69	739.78
602.04	732.93
602.39	725.94
602.74	719.16
603.08	712.54
603.43	705.87
603.78	699.20
604.13	692.65
604.48	686.15
604.83	679.80
605.18	673.56
605.53	667.46
605.87	661.29
606.22	655.23
606.57	649.14
606.92	642.93
607.27	636.73
607.62	630.77
607.96	625.08
608.31	619.75
608.66	614.37
609.01	609.23
609.36	604.04
609.70	598.81
610.05	593.61
610.40	588.56
610.75	583.53
611.10	578.70
611.44	573.87
611.79	569.12
612.14	564.32
612.49	559.62
612.83	555.12
613.18	550.68
613.53	546.25
613.88	541.96
614.22	538.01
614.57	533.98
614.92	529.99
615.27	526.10
615.61	522.18
615.96	518.28
616.31	514.36
616.65	510.61
617.00	506.95
617.35	503.33
617.70	499.74
618.04	496.24
618.39	492.84
618.74	489.64
619.08	486.41
619.43	483.29
619.78	480.12
620.12	476.99
620.47	474.04
620.82	471.15
621.16	468.24
621.51	465.40
621.85	462.56
622.20	459.81
622.55	457.03
622.89	454.26
623.24	451.66
623.59	449.13
623.93	446.65
624.28	444.33
624.62	442.19
624.97	440.04
625.32	437.80
625.66	435.51
626.01	433.21
626.35	431.06
626.70	428.85
627.04	426.83
627.39	424.71
627.73	422.70
628.08	420.76
628.43	418.83
628.77	416.80
629.12	414.91
629.46	413.13
629.81	411.44
630.15	409.69
630.50	407.95
630.84	406.25
631.19	404.59
631.53	402.96
631.88	401.18
632.22	399.51
632.57	398.09
632.91	396.66
633.26	395.27
633.60	393.90
633.95	392.59
634.29	391.16
634.64	389.81
634.98	388.33
635.32	387.02
635.67	385.81
636.01	384.61
636.36	383.45
636.70	382.37
637.05	381.13
637.39	380.05
637.73	378.95
638.08	377.92
638.42	376.91
638.77	375.79
639.11	374.65
639.45	373.52
639.80	372.34
640.14	371.23
640.49	370.13
640.83	369.03
641.17	367.95
641.52	366.89
641.86	365.88
642.20	365.04
642.55	363.99
642.89	362.97
643.23	362.03
643.58	361.18
643.92	360.17
644.26	359.25
644.61	358.37
644.95	357.45
645.29	356.44
645.64	355.43
645.98	354.53
646.32	353.72
646.66	352.87
647.01	352.07
647.35	351.33
647.69	350.54
648.04	349.83
648.38	349.07
648.72	348.34
649.06	347.59
649.41	346.76
649.75	346.02
650.09	345.32
650.43	344.57
650.78	343.82
651.12	343.09
651.46	342.37
651.80	341.66
652.14	340.99
652.49	340.39
652.83	339.72
653.17	339.01
653.51	338.34
653.85	337.74
654.20	337.11
654.54	336.38
654.88	335.69
655.22	335.04
655.56	334.37
655.90	333.73
656.25	333.11
656.59	332.50
656.93	331.93
657.27	331.40
657.61	330.79
657.95	330.23
658.29	329.66
658.64	329.10
658.98	328.51
659.32	327.93
659.66	327.36
660.00	326.84
660.34	326.32
660.68	325.75
661.02	325.13
661.36	324.55
661.70	324.00
662.05	323.47
662.39	322.95
662.73	322.50
663.07	322.08
663.41	321.60
663.75	321.10
664.09	320.60
664.43	319.98
664.77	319.45
665.11	318.85
665.45	318.33
665.79	317.83
666.13	317.28
666.47	316.73
666.81	316.18
667.15	315.59
667.49	315.11
667.83	314.69
668.17	314.25
668.51	313.82
668.85	313.42
669.19	313.06
669.53	312.52
669.87	311.97
670.21	311.42
670.55	310.91
670.89	310.51
671.23	310.06
671.57	309.68
671.91	309.33
672.25	309.00
672.58	308.67
672.92	308.23
673.26	307.90
673.60	307.55
673.94	307.17
674.28	306.84
674.62	306.49
674.96	306.04
675.30	305.64
675.64	305.20
675.97	304.74
676.31	304.25
676.65	303.83
676.99	303.50
677.33	303.06
677.67	302.68
678.01	302.19
678.34	301.78
678.68	301.37
679.02	300.92
679.36	300.48
679.70	300.01
680.04	299.62
680.37	299.21
680.71	298.82
681.05	298.46
681.39	298.03
681.73	297.55
682.06	297.12
682.40	296.73
682.74	296.37
683.08	296.06
683.42	295.71
683.75	295.36
684.09	294.90
684.43	294.50
684.77	294.09
685.10	293.70
685.44	293.29
685.78	292.88
686.12	292.47
686.45	292.07
686.79	291.63
687.13	291.23
687.46	290.77
687.80	290.35
688.14	289.85
688.48	289.45
688.81	289.06
689.15	288.71
689.49	288.28
689.82	287.84
690.16	287.31
690.50	286.86
690.83	286.43
691.17	286.00
691.51	285.59
691.84	285.20
692.18	284.78
692.52	284.33
692.85	283.91
693.19	283.55
693.52	283.12
693.86	282.70
694.20	282.26
694.53	281.85
694.87	281.41
695.21	280.99
695.54	280.56
695.88	280.12
696.21	279.63
696.55	279.20
696.88	278.78
697.22	278.37
697.56	277.99
697.89	277.53
698.23	277.13
698.56	276.70
698.90	276.29
699.23	275.86
699.57	275.49
699.90	275.07
700.24	274.62
700.58	274.24
700.91	273.90
701.25	273.68
701.58	273.37
701.92	273.06
702.25	272.70
702.59	272.30
702.92	271.93
703.26	271.55
703.59	271.17
703.93	270.93
704.26	270.58
704.60	270.18
704.93	269.82
705.26	269.44
705.60	269.10
705.93	268.71
706.27	268.42
706.60	268.10
706.94	267.80
707.27	267.41
707.61	267.05
707.94	266.65
708.27	266.13
708.61	265.70
708.94	265.29
709.28	264.93
709.61	264.58
709.94	264.26
710.28	263.94
710.61	263.64
710.95	263.17
711.28	262.94
711.61	262.61
711.95	262.32
712.28	261.99
712.61	261.65
712.95	261.42
713.28	261.16
713.61	260.81
713.95	260.45
714.28	260.16
714.61	259.83
714.95	259.53
715.28	259.23
715.61	258.95
715.95	258.69
716.28	258.39
716.61	258.14
716.95	257.83
717.28	257.54
717.61	257.24
717.94	256.96
718.28	256.56
718.61	256.29
718.94	255.98
719.27	255.72
719.61	255.49
719.94	255.19
720.27	254.84
720.60	254.59
720.94	254.34
721.27	254.11
721.60	253.89
721.93	253.63
722.27	253.43
722.60	253.19
722.93	252.92
723.26	252.71
723.59	252.45
723.93	252.25
724.26	252.04
724.59	251.80
724.92	251.60
725.25	251.44
725.59	251.22
725.92	251.02
726.25	250.81
726.58	250.58
726.91	250.34
727.24	250.15
727.57	249.92
727.91	249.68
728.24	249.49
728.57	249.27
728.90	249.09
729.23	248.84
729.56	248.72
729.89	248.51
730.22	248.29
730.55	248.10
730.89	247.90
731.22	247.70
731.55	247.51
731.88	247.32
732.21	247.10
732.54	246.90
732.87	246.72
733.20	246.56
733.53	246.38
733.86	246.23
734.19	246.04
734.52	245.90
734.85	245.87
735.18	245.67
735.51	245.54
735.84	245.39
736.17	245.27
736.50	245.01
736.83	245.06
737.16	244.92
737.49	244.77
737.82	244.59
738.15	244.45
738.48	244.30
738.81	244.12
739.14	243.94
739.47	243.78
739.80	243.62
740.13	243.47
740.46	243.29
740.79	243.10
741.12	242.95
741.45	242.76
741.78	242.51
742.11	242.41
742.44	242.21
742.77	242.08
743.10	241.91
743.43	241.77
743.75	241.45
744.08	241.56
744.41	241.41
744.74	241.26
745.07	241.10
745.40	241.00
745.73	240.94
746.06	240.83
746.39	240.73
746.71	240.59
747.04	240.45
747.37	240.33
747.70	240.22
748.03	240.11
748.36	240.03
748.68	239.90
749.01	239.74
749.34	239.63
749.67	239.51
750.00	239.42
750.33	239.44
750.65	239.33
750.98	238.97
751.31	238.88
751.64	238.79
751.97	238.78
752.29	238.66
752.62	238.47
752.95	238.34
753.28	238.21
753.60	238.10
753.93	238.04
754.26	237.93
754.59	237.78
754.91	237.65
755.24	237.53
755.57	237.43
755.90	237.32
756.22	237.20
756.55	237.07
756.88	236.93
757.20	236.71
757.53	236.56
757.86	236.47
758.19	236.38
758.51	236.28
758.84	236.10
759.17	236.00
759.49	235.92
759.82	235.91
760.15	235.84
760.47	235.75
760.80	235.61
761.13	235.57
761.45	235.49
761.78	235.40
762.11	235.33
762.43	235.23
762.76	235.15
763.08	235.10
763.41	235.03
763.74	234.99
764.06	234.90
764.39	234.84
764.71	234.75
765.04	234.66
765.37	234.57
765.69	234.49
766.02	234.42
766.34	234.34
766.67	234.20
767.00	234.15
767.32	234.17
767.65	234.21
767.97	234.12
768.30	234.06
768.62	234.01
768.95	233.91
769.27	233.84
769.60	233.80
769.92	233.70
770.25	233.61
770.57	233.50
770.90	233.44
771.22	233.36
771.55	233.32
771.87	233.27
772.20	233.21
772.52	233.30
772.85	233.46
773.17	233.41
773.50	233.35
773.82	233.27
774.15	233.14
774.47	232.97
774.80	232.90
775.12	232.85
775.45	232.80
775.77	232.78
776.09	232.75
776.42	232.71
776.74	232.72
777.07	232.67
777.39	232.63
777.72	232.58
778.04	232.56
778.36	232.50
778.69	232.47
779.01	232.44
779.33	232.25
779.66	232.01
779.98	231.96
780.31	231.94
780.63	231.98
780.95	231.98
781.28	231.93
781.60	231.90
781.92	231.86
782.25	231.82
782.57	231.78
782.89	231.73
783.22	231.69
783.54	231.63
783.86	231.61
784.19	231.58
784.51	231.60
784.83	231.55
785.16	231.52
785.48	231.48
785.80	231.45
786.12	231.43
786.45	231.40
786.77	231.38
787.09	231.34
787.42	231.23
787.74	231.20
788.06	231.20
788.38	231.16
788.71	231.12
789.03	231.11
789.35	231.11
789.67	231.06
789.99	231.04
790.32	231.00
790.64	230.98
790.96	231.13
791.28	231.04
791.61	231.00
791.93	230.99
792.25	230.94
792.57	231.03
792.89	230.99
793.21	230.97
793.54	230.93
793.86	230.90
794.18	230.89
794.50	230.83
794.82	230.79
795.14	230.80
795.47	230.81
795.79	230.79
796.11	230.73
796.43	230.70
796.75	230.66
797.07	230.66
797.39	230.63
797.71	230.46
798.04	230.45
798.36	230.45
798.68	230.42
799.00	230.42
799.32	230.31
799.64	230.32
799.96	230.30
800.28	230.32
800.60	230.29
800.92	230.28
801.24	230.25
801.56	230.25
801.89	230.21
802.21	230.20
802.53	230.15
802.85	230.17
803.17	230.25
803.49	230.19
803.81	230.15
804.13	230.13
804.45	230.09
804.77	230.08
805.09	230.07
805.41	230.04
805.73	229.99
806.05	229.93
806.37	229.91
806.69	229.87
807.01	229.83
807.33	229.83
807.65	229.76
807.97	229.82
808.28	229.78
808.60	229.76
808.92	229.72
809.24	229.81
809.56	229.77
809.88	229.68
810.20	229.69
810.52	229.71
810.84	229.68
811.16	229.65
811.48	229.62
811.80	229.67
812.12	229.65
812.43	229.68
812.75	229.68
813.07	229.65
813.39	229.65
813.71	229.61
814.03	229.58
814.35	229.59
814.67	229.51
814.98	229.50
815.30	229.48
815.62	229.45
815.94	229.32
816.26	229.33
816.58	229.29
816.89	229.29
817.21	229.24
817.53	229.25
817.85	229.26
818.17	229.25
818.48	229.17
818.80	229.20
819.12	229.16
819.44	229.12
819.76	229.08
820.07	229.07
820.39	229.06
820.71	229.07
821.03	229.06
821.34	229.03
821.66	229.03
821.98	229.05
822.30	229.04
822.61	229.14
822.93	229.10
823.25	229.09
823.57	229.07
823.88	229.08
824.20	229.06
824.52	229.07
824.83	229.05
825.15	229.02
825.47	228.99
825.79	228.99
826.10	228.99
826.42	228.99
826.74	228.99
827.05	228.99
827.37	228.98
827.69	228.97
828.00	228.98
828.32	228.97
828.64	228.94
828.95	229.03
829.27	228.97
829.58	228.95
829.90	228.98
830.22	228.98
830.53	228.96
830.85	228.94
831.17	228.88
831.48	228.87
831.80	228.87
832.11	228.85
832.43	228.82
832.75	228.80
833.06	228.90
833.38	228.85
833.69	228.84
834.01	228.84
834.32	228.83
834.64	228.80
834.96	228.80
835.27	228.80
835.59	228.73
835.90	228.70
836.22	228.70
836.53	228.66
836.85	228.64
837.16	228.81
837.48	228.80
837.79	228.86
838.11	228.86
838.42	228.86
838.74	228.88
839.05	228.86
839.37	228.85
839.68	228.73
840.00	228.73
840.31	228.74
840.63	228.71
840.94	228.70
841.26	228.68
841.57	228.65
841.88	228.67
842.20	228.63
842.51	228.60
842.83	228.59
843.14	228.74
843.46	228.73
843.77	228.62
844.08	228.62
844.40	228.56
844.71	228.53
845.03	228.52
845.34	228.50
845.65	228.50
845.97	228.49
846.28	228.51
846.60	228.51
846.91	228.48
847.22	228.46
847.54	228.49
847.85	228.50
848.16	228.49
848.48	228.45
848.79	228.52
849.10	228.54
849.42	228.55
849.73	228.38
850.04	228.38
850.36	228.30
850.67	228.32
850.98	228.32
851.30	228.35
851.61	228.33
851.92	228.32
852.23	228.37
852.55	228.39
852.86	228.38
853.17	228.40
853.49	228.43
853.80	228.47
854.11	228.48
854.42	228.49
854.74	228.49
855.05	228.49
855.36	228.41
855.67	228.41
855.99	228.40
856.30	228.61
856.61	228.60
856.92	228.61
857.23	228.61
857.55	228.59
857.86	228.57
858.17	228.60
858.48	228.57
858.79	228.52
859.11	228.52
859.42	228.51
859.73	228.48
860.04	228.47
860.35	228.42
860.66	228.36
860.98	228.36
861.29	228.37
861.60	228.36
861.91	228.38
862.22	228.36
862.53	228.34
862.84	228.13
863.16	228.17
863.47	228.14
863.78	228.10
864.09	228.12
864.40	228.14
864.71	228.13
865.02	228.17
865.33	228.15
865.64	228.13
865.95	228.13
866.27	228.25
866.58	228.23
866.89	228.25
867.20	228.25
867.51	228.21
867.82	228.19
868.13	228.24
868.44	228.20
868.75	228.23
869.06	228.23
869.37	228.25
869.68	228.19
869.99	228.22
870.30	228.23
870.61	228.25
870.92	228.22
871.23	228.21
871.54	228.22
871.85	228.27
872.16	228.29
872.47	228.28
872.78	228.17
873.09	228.19
873.40	228.16
873.71	228.16
874.02	228.18
874.33	228.17
874.64	228.14
874.95	228.18
875.26	228.15
875.56	228.15
875.87	228.14
876.18	228.14
876.49	228.32
876.80	228.29
877.11	228.26
877.42	228.27
877.73	228.27
878.04	228.24
878.35	228.23
878.66	228.23
878.96	228.22
879.27	228.21
879.58	228.21
879.89	228.20
880.20	228.24
880.51	228.23
880.82	228.23
881.12	228.24
881.43	228.19
881.74	228.17
882.05	228.16
882.36	228.18
882.67	228.19
882.97	227.99
883.28	227.98
883.59	227.97
883.90	227.98
884.21	227.99
884.51	227.99
884.82	227.96
885.13	227.96
885.44	227.95
885.74	227.96
886.05	227.94
886.36	227.95
886.67	227.88
886.98	227.97
887.28	228.00
887.59	227.99
887.90	228.00
888.20	228.00
888.51	228.02
888.82	227.99
889.13	228.01
889.43	228.17
889.74	228.16
890.05	228.15
890.35	228.13
890.66	228.10
890.97	228.09
891.28	228.07
891.58	228.07
891.89	228.07
892.20	228.05
892.50	228.03
892.81	228.03
893.12	228.03
893.42	227.94
893.73	227.94
894.04	227.94
894.34	227.95
894.65	227.95
894.95	227.93
895.26	227.93
895.57	228.01
895.87	227.84
896.18	227.87
896.48	227.88
896.79	227.88
897.10	227.90
897.40	227.90
897.71	227.94
898.01	227.92
898.32	227.94
898.63	227.94
898.93	227.96
899.24	227.95
899.54	227.94
899.85	227.92
900.15	227.91
900.46	227.90
900.76	227.91
901.07	227.90
901.38	227.89
901.68	227.91
901.99	227.81
902.29	227.83
902.60	227.81
902.90	227.80
903.21	227.79
903.51	227.78
903.82	227.81
904.12	227.80
904.43	227.81
904.73	227.80
905.03	227.80
905.34	227.97
905.64	227.97
905.95	227.97
906.25	227.97
906.56	227.96
906.86	227.97
907.17	227.96
907.47	227.97
907.77	227.96
908.08	227.93
908.38	227.94
908.69	227.95
908.99	227.97
909.30	227.98
909.60	227.99
909.90	227.99
910.21	227.95
910.51	227.91
910.81	227.91
911.12	227.92
911.42	227.91
911.73	227.72
912.03	227.73
912.33	227.76
912.64	227.76
912.94	227.74
913.24	227.71
913.55	227.69
913.85	227.68
914.15	227.73
914.46	227.74
914.76	227.72
915.06	227.71
915.37	227.67
915.67	227.66
915.97	227.66
916.27	227.63
916.58	227.63
916.88	227.64
917.18	227.62
917.49	227.73
917.79	227.72
918.09	227.75
918.39	227.80
918.70	227.78
919.00	227.78
919.30	227.87
919.60	227.85
919.91	227.85
920.21	227.85
920.51	227.80
920.81	227.80
921.12	227.82
921.42	227.82
921.72	227.85
922.02	227.86
922.32	227.88
922.63	227.89
922.93	228.00
923.23	228.01
923.53	227.99
923.83	227.87
924.13	227.91
924.44	227.91
924.74	227.93
925.04	227.97
925.34	227.98
925.64	227.90
925.94	227.90
926.24	228.00
926.55	227.97
926.85	227.99
927.15	227.98
927.45	227.98
927.75	227.97
928.05	227.98
928.35	227.97
928.65	227.99
928.95	227.99
929.26	227.90
929.56	227.94
929.86	227.96
930.16	227.95
930.46	227.93
930.76	227.94
931.06	227.85
931.36	227.80
931.66	227.84
931.96	227.86
932.26	227.88
932.56	227.80
932.86	227.83
933.16	227.83
933.46	227.83
933.76	227.80
934.06	227.85
934.36	227.90
934.66	227.91
934.96	227.88
935.26	227.89
935.56	227.92
935.86	227.86
936.16	227.85
936.46	227.85
936.76	227.84
937.06	227.81
937.36	227.83
937.66	227.84
937.96	227.82
938.26	227.78
938.56	227.78
938.86	227.78
939.16	227.82
939.46	227.84
939.76	227.84
940.06	227.84
940.35	227.80
940.65	227.71
940.95	227.71
941.25	227.67
941.55	227.64
941.85	227.63
942.15	227.68
942.45	227.72
942.75	227.70
943.04	227.71
943.34	227.74
943.64	227.72
943.94	227.70
944.24	227.70
944.54	227.72
944.84	227.70
945.13	227.69
945.43	227.66
945.73	227.64
946.03	227.62
946.33	227.61
946.62	227.59
946.92	227.58
947.22	227.58
947.52	227.60
947.82	227.61
948.11	227.60
948.41	227.56
948.71	227.52
949.01	227.53
949.31	227.52
949.60	227.49
949.90	227.52
950.20	227.52
950.50	227.51
950.79	227.49
951.09	227.52
951.39	227.53
951.69	227.51
951.98	227.54
952.28	227.56
952.58	227.55
952.87	227.57
953.17	227.60
953.47	227.58
953.76	227.58
954.06	227.55
954.36	227.52
954.66	227.52
954.95	227.56
955.25	227.57
955.55	227.58
955.84	227.57
956.14	227.58
956.44	227.59
956.73	227.58
957.03	227.59
957.32	227.58
957.62	227.56
957.92	227.59
958.21	227.57
958.51	227.77
958.81	227.80
959.10	227.82
959.40	227.84
959.69	227.86
959.99	227.88
960.29	227.90
960.58	227.91
960.88	227.98
961.17	227.97
961.47	227.99
961.76	227.97
962.06	227.99
962.36	227.96
962.65	227.97
962.95	227.97
963.24	227.95
963.54	227.96
963.83	227.97
964.13	227.97
964.42	227.95
964.72	227.81
965.01	227.82
965.31	227.80
965.60	227.77
965.90	227.87
966.19	227.84
966.49	227.86
966.78	227.85
967.08	227.82
967.37	227.82
967.67	227.79
967.96	227.83
968.26	227.83
968.55	227.86
968.85	227.85
969.14	227.85
969.43	227.85
969.73	227.83
970.02	227.83
970.32	227.82
970.61	227.80
970.91	227.75
971.20	227.72
971.49	227.71
971.79	227.73
972.08	227.60
972.38	227.62
972.67	227.60
972.96	227.63
973.26	227.61
973.55	227.66
973.85	227.65
974.14	227.63
974.43	227.64
974.73	227.61
975.02	227.60
975.31	227.61
975.61	227.62
975.90	227.61
976.19	227.61
976.49	227.62
976.78	227.63
977.07	227.64
977.37	227.65
977.66	227.66
977.95	227.63
978.24	227.65
978.54	227.67
978.83	227.65
979.12	227.64
979.42	227.64
979.71	227.60
980.00	227.60
980.29	227.61
980.59	227.58
980.88	227.62
981.17	227.62
981.46	227.59
981.76	227.58
982.05	227.64
982.34	227.64
982.63	227.64
982.93	227.62
983.22	227.65
983.51	227.65
983.80	227.67
984.09	227.70
984.39	227.68
984.68	227.66
984.97	227.67
985.26	227.65
985.55	227.67
985.85	227.63
986.14	227.64
986.43	227.65
986.72	227.64
987.01	227.57
987.30	227.58
987.59	227.58
987.89	227.59
988.18	227.54
988.47	227.52
988.76	227.50
989.05	227.49
989.34	227.46
989.63	227.50
989.92	227.48
990.22	227.45
990.51	227.44
990.80	227.43
991.09	227.45
991.38	227.47
991.67	227.44
991.96	227.42
992.25	227.43
992.54	227.39
992.83	227.40
993.12	227.40
993.41	227.42
993.70	227.49
993.99	227.53
994.28	227.55
994.58	227.58
994.87	227.57
995.16	227.58
995.45	227.57
995.74	227.51
996.03	227.53
996.32	227.55
996.61	227.60
996.90	227.59
997.19	227.58
997.48	227.58
997.77	227.57
998.06	227.59
998.34	227.58
998.63	227.59
998.92	227.59
999.21	227.62
999.50	227.62
999.79	227.55
1000.08	227.54
1000.37	227.54
1000.66	227.52
1000.95	227.57
1001.24	227.58
1001.53	227.59
1001.82	227.59
1002.11	227.54
1002.40	227.55
1002.68	227.58
1002.97	227.71
1003.26	227.68
1003.55	227.66
1003.84	227.67
1004.13	227.74
1004.42	227.72
1004.71	227.73
1004.99	227.72
1005.28	227.76
1005.57	227.73
1005.86	227.73
1006.15	227.72
1006.44	227.70
1006.72	227.71
1007.01	227.67
1007.30	227.67
1007.59	227.66
1007.88	227.66
1008.17	227.68
1008.45	227.66
1008.74	227.59
1009.03	227.51
1009.32	227.52
1009.60	227.51
1009.89	227.51
1010.18	227.42
1010.47	227.43
1010.76	227.42
1011.04	227.42
1011.33	227.42
1011.62	227.44
1011.91	227.45
1012.19	227.44
1012.48	227.45
1012.77	227.45
1013.05	227.51
1013.34	227.52
1013.63	227.51
1013.92	227.52
1014.20	227.50
1014.49	227.50
1014.78	227.52
1015.06	227.46
1015.35	227.45
1015.64	227.49
1015.92	227.51
1016.21	227.53
1016.50	227.53
1016.78	227.55
1017.07	227.57
1017.36	227.54
1017.64	227.51
1017.93	227.52
1018.22	227.51
1018.50	227.50
1018.79	227.49
1019.08	227.43
1019.36	227.44
1019.65	227.41
1019.93	227.46
1020.22	227.50
1020.51	227.59
1020.79	227.57
1021.08	227.27
1021.36	227.08
1021.65	227.37
1021.94	227.43
1022.22	227.64
1022.51	227.00
1022.79	228.37
1023.08	227.87
1023.36	229.59
1023.65	226.99
>>>>>End Processed Spectral Data<<<<<
