SpectraSuite Data File
++++++++++++++++++++++++++++++++++++
Date: Tue Oct 06 12:49:24 EDT 2015
User: lab3
Dark Spectrum Present: No
Reference Spectrum Present: No
Number of Sampled Component Spectra: 1
Spectrometers: USB2E7196
Integration Time (usec): 66000 (USB2E7196)
Spectra Averaged: 1000 (USB2E7196)
Boxcar Smoothing: 10 (USB2E7196)
Correct for Electrical Dark: No (USB2E7196)
Strobe/Lamp Enabled: No (USB2E7196)
Correct for Detector Non-linearity: No (USB2E7196)
Correct for Stray Light: No (USB2E7196)
Number of Pixels in Processed Spectrum: 2048
>>>>>Begin Processed Spectral Data<<<<<
339.09	0.00
339.48	217.22
339.86	218.50
340.24	219.92
340.63	221.54
341.01	225.32
341.39	224.24
341.78	225.59
342.16	226.74
342.54	227.15
342.93	215.50
343.31	226.38
343.69	226.92
344.07	227.39
344.46	227.83
344.84	228.21
345.22	228.41
345.60	228.69
345.99	228.89
346.37	229.04
346.75	229.15
347.13	229.24
347.52	229.33
347.90	229.44
348.28	229.50
348.66	229.57
349.05	229.56
349.43	229.64
349.81	229.71
350.19	229.77
350.57	229.85
350.96	229.93
351.34	230.04
351.72	230.14
352.10	230.26
352.48	230.33
352.87	230.38
353.25	230.45
353.63	230.50
354.01	230.56
354.39	230.65
354.77	230.72
355.15	230.85
355.54	230.88
355.92	230.90
356.30	230.98
356.68	231.16
357.06	231.25
357.44	231.28
357.82	231.36
358.20	231.57
358.58	231.64
358.97	231.72
359.35	231.82
359.73	231.91
360.11	231.97
360.49	232.03
360.87	232.09
361.25	232.16
361.63	232.26
362.01	232.33
362.39	232.35
362.77	232.40
363.15	232.42
363.53	232.46
363.91	232.51
364.29	232.53
364.67	232.39
365.05	232.42
365.43	232.47
365.81	232.49
366.19	232.44
366.57	232.53
366.95	232.52
367.33	232.48
367.71	232.47
368.09	232.50
368.47	232.49
368.85	232.48
369.23	232.50
369.61	232.43
369.99	232.45
370.37	232.46
370.75	232.58
371.13	232.55
371.51	232.51
371.89	232.49
372.27	232.47
372.65	232.44
373.03	232.40
373.41	232.35
373.78	232.30
374.16	232.19
374.54	232.08
374.92	232.03
375.30	231.98
375.68	231.90
376.06	231.87
376.44	231.81
376.82	231.78
377.19	231.74
377.57	231.68
377.95	231.58
378.33	231.52
378.71	231.30
379.09	231.26
379.47	231.24
379.84	231.17
380.22	231.12
380.60	231.03
380.98	230.99
381.36	230.93
381.73	230.86
382.11	230.85
382.49	230.81
382.87	230.75
383.25	230.71
383.62	230.87
384.00	230.78
384.38	230.75
384.76	230.74
385.13	230.75
385.51	230.71
385.89	230.65
386.27	230.61
386.64	230.60
387.02	230.54
387.40	230.49
387.78	230.46
388.15	230.44
388.53	230.41
388.91	230.38
389.29	230.35
389.66	230.36
390.04	230.31
390.42	230.32
390.79	230.30
391.17	230.29
391.55	230.09
391.92	230.08
392.30	230.10
392.68	230.05
393.05	230.04
393.43	230.05
393.81	230.08
394.18	230.06
394.56	230.08
394.94	230.12
395.31	230.12
395.69	230.20
396.06	230.24
396.44	230.29
396.82	230.31
397.19	230.43
397.57	230.45
397.95	230.52
398.32	230.52
398.70	230.61
399.07	230.70
399.45	230.76
399.82	230.83
400.20	230.89
400.58	230.98
400.95	231.00
401.33	231.12
401.70	231.34
402.08	231.49
402.45	231.62
402.83	231.80
403.20	231.96
403.58	232.09
403.95	232.30
404.33	232.52
404.71	232.73
405.08	233.03
405.46	233.27
405.83	233.54
406.21	233.82
406.58	234.13
406.96	234.43
407.33	234.80
407.70	235.20
408.08	235.76
408.45	236.25
408.83	236.77
409.20	237.25
409.58	237.70
409.95	238.31
410.33	238.96
410.70	239.59
411.08	240.33
411.45	241.09
411.82	241.89
412.20	242.78
412.57	243.84
412.95	244.69
413.32	245.80
413.69	246.95
414.07	248.16
414.44	249.48
414.82	250.84
415.19	252.43
415.56	254.04
415.94	255.72
416.31	257.59
416.68	259.48
417.06	261.67
417.43	263.71
417.81	266.06
418.18	268.46
418.55	271.07
418.93	273.80
419.30	276.67
419.67	279.68
420.04	282.80
420.42	286.07
420.79	289.83
421.16	293.63
421.54	297.48
421.91	301.51
422.28	305.68
422.66	310.19
423.03	314.46
423.40	318.95
423.77	323.74
424.15	328.65
424.52	333.74
424.89	339.26
425.26	344.74
425.64	349.81
426.01	355.52
426.38	361.36
426.75	367.32
427.13	373.42
427.50	379.83
427.87	386.47
428.24	393.13
428.61	399.55
428.99	406.45
429.36	414.03
429.73	421.32
430.10	428.56
430.47	435.97
430.85	443.66
431.22	451.83
431.59	460.21
431.96	468.37
432.33	477.46
432.70	486.12
433.08	496.41
433.45	506.08
433.82	515.57
434.19	526.19
434.56	536.66
434.93	546.79
435.30	556.82
435.68	568.24
436.05	579.40
436.42	590.54
436.79	600.72
437.16	611.69
437.53	623.54
437.90	635.41
438.27	646.96
438.64	659.36
439.01	670.71
439.38	681.19
439.75	691.27
440.13	702.74
440.50	713.66
440.87	722.30
441.24	731.84
441.61	742.32
441.98	750.00
442.35	759.09
442.72	768.44
443.09	777.42
443.46	783.33
443.83	787.71
444.20	791.28
444.57	796.62
444.94	799.90
445.31	803.10
445.68	805.85
446.05	807.92
446.42	807.67
446.79	807.20
447.16	806.77
447.53	806.54
447.90	803.21
448.27	799.94
448.64	794.83
449.01	791.45
449.37	784.28
449.74	777.84
450.11	769.49
450.48	760.19
450.85	750.85
451.22	742.66
451.59	734.76
451.96	727.73
452.33	717.39
452.70	708.11
453.07	696.92
453.43	685.75
453.80	674.89
454.17	664.53
454.54	654.81
454.91	643.86
455.28	633.41
455.65	623.58
456.02	613.28
456.38	604.97
456.75	594.22
457.12	585.57
457.49	576.81
457.86	568.58
458.23	561.37
458.59	553.36
458.96	545.21
459.33	538.02
459.70	530.70
460.07	525.04
460.43	518.38
460.80	512.14
461.17	506.68
461.54	500.87
461.91	495.40
462.27	489.86
462.64	485.33
463.01	480.17
463.38	475.01
463.74	470.33
464.11	466.20
464.48	462.45
464.85	458.38
465.21	455.25
465.58	451.79
465.95	447.85
466.32	444.70
466.68	441.59
467.05	438.48
467.42	435.45
467.78	432.23
468.15	429.27
468.52	427.10
468.88	424.26
469.25	421.64
469.62	419.55
469.98	417.27
470.35	415.23
470.72	413.40
471.08	411.53
471.45	409.94
471.82	408.16
472.18	406.32
472.55	405.11
472.92	403.66
473.28	402.50
473.65	401.25
474.02	400.10
474.38	399.13
474.75	398.52
475.11	397.67
475.48	397.28
475.85	396.88
476.21	396.67
476.58	396.51
476.94	396.70
477.31	396.77
477.67	396.91
478.04	397.21
478.41	397.61
478.77	398.21
479.14	398.57
479.50	399.34
479.87	400.31
480.23	401.28
480.60	402.20
480.96	403.13
481.33	404.55
481.69	405.92
482.06	407.31
482.42	408.61
482.79	410.18
483.15	412.03
483.52	414.12
483.88	416.12
484.25	418.27
484.61	420.49
484.98	422.85
485.34	425.53
485.71	428.32
486.07	431.30
486.44	434.21
486.80	437.52
487.17	440.88
487.53	444.57
487.90	448.42
488.26	452.62
488.62	457.01
488.99	461.44
489.35	466.13
489.72	471.13
490.08	476.40
490.44	481.77
490.81	487.32
491.17	493.00
491.54	499.05
491.90	505.24
492.26	511.84
492.63	518.79
492.99	525.98
493.36	533.41
493.72	541.23
494.08	549.24
494.45	557.62
494.81	566.42
495.17	575.43
495.54	584.94
495.90	594.83
496.26	604.99
496.63	615.33
496.99	626.07
497.35	637.26
497.72	648.79
498.08	660.77
498.44	673.00
498.80	686.00
499.17	699.33
499.53	713.10
499.89	727.22
500.26	741.45
500.62	756.00
500.98	771.22
501.34	786.64
501.71	802.75
502.07	819.14
502.43	835.94
502.79	852.82
503.16	870.22
503.52	887.86
503.88	905.99
504.24	924.56
504.60	943.36
504.97	962.61
505.33	982.33
505.69	1002.99
506.05	1023.69
506.41	1044.31
506.78	1065.22
507.14	1086.97
507.50	1109.14
507.86	1131.76
508.22	1154.46
508.59	1176.97
508.95	1200.37
509.31	1224.22
509.67	1248.74
510.03	1273.04
510.39	1297.78
510.75	1322.52
511.12	1347.35
511.48	1372.18
511.84	1397.11
512.20	1422.56
512.56	1448.27
512.92	1473.86
513.28	1499.16
513.64	1524.76
514.00	1550.46
514.37	1576.30
514.73	1601.86
515.09	1627.03
515.45	1652.37
515.81	1677.80
516.17	1703.40
516.53	1728.21
516.89	1753.02
517.25	1777.86
517.61	1802.71
517.97	1827.68
518.33	1852.14
518.69	1876.52
519.05	1901.12
519.41	1925.60
519.77	1950.06
520.13	1974.28
520.49	1998.23
520.85	2022.23
521.21	2046.09
521.57	2070.06
521.93	2093.12
522.29	2116.54
522.65	2139.47
523.01	2162.23
523.37	2184.13
523.73	2206.42
524.09	2228.89
524.45	2251.36
524.81	2272.89
525.17	2294.29
525.53	2315.01
525.89	2336.06
526.25	2356.66
526.61	2376.05
526.97	2395.73
527.33	2414.68
527.68	2432.89
528.04	2450.52
528.40	2467.11
528.76	2484.21
529.12	2500.15
529.48	2516.52
529.84	2531.71
530.20	2547.82
530.56	2562.80
530.91	2577.80
531.27	2591.86
531.63	2604.97
531.99	2617.74
532.35	2628.99
532.71	2640.22
533.07	2651.74
533.42	2661.86
533.78	2672.63
534.14	2683.61
534.50	2693.14
534.86	2702.87
535.21	2710.61
535.57	2718.62
535.93	2727.00
536.29	2734.22
536.65	2741.56
537.00	2746.83
537.36	2752.52
537.72	2756.58
538.08	2760.39
538.44	2763.28
538.79	2766.50
539.15	2769.09
539.51	2771.05
539.87	2773.67
540.22	2774.23
540.58	2775.36
540.94	2775.90
541.29	2775.14
541.65	2772.87
542.01	2770.71
542.37	2767.61
542.72	2766.19
543.08	2763.31
543.44	2760.18
543.79	2755.28
544.15	2750.42
544.51	2746.19
544.87	2740.03
545.22	2733.36
545.58	2727.05
545.94	2721.47
546.29	2713.97
546.65	2705.89
547.01	2697.92
547.36	2689.56
547.72	2681.08
548.07	2671.32
548.43	2661.51
548.79	2650.63
549.14	2640.76
549.50	2630.65
549.86	2619.94
550.21	2607.45
550.57	2596.25
550.92	2583.37
551.28	2571.30
551.64	2559.37
551.99	2547.48
552.35	2535.64
552.70	2523.59
553.06	2511.74
553.41	2498.69
553.77	2485.52
554.13	2472.55
554.48	2458.68
554.84	2444.39
555.19	2431.11
555.55	2417.01
555.90	2403.03
556.26	2389.97
556.61	2376.22
556.97	2361.55
557.32	2347.22
557.68	2333.00
558.03	2318.28
558.39	2304.35
558.74	2290.47
559.10	2274.73
559.45	2259.63
559.81	2245.18
560.16	2230.34
560.52	2215.25
560.87	2200.98
561.23	2186.11
561.58	2171.51
561.94	2156.31
562.29	2141.29
562.64	2126.07
563.00	2111.06
563.35	2096.68
563.71	2082.02
564.06	2067.01
564.42	2052.54
564.77	2038.05
565.12	2024.13
565.48	2009.95
565.83	1995.47
566.19	1981.17
566.54	1967.31
566.89	1952.17
567.25	1936.63
567.60	1922.32
567.96	1907.35
568.31	1891.94
568.66	1877.40
569.02	1862.87
569.37	1848.53
569.72	1834.39
570.08	1820.25
570.43	1805.96
570.78	1790.91
571.14	1775.86
571.49	1761.17
571.84	1747.24
572.20	1732.05
572.55	1717.05
572.90	1701.56
573.26	1686.15
573.61	1670.50
573.96	1655.44
574.31	1641.02
574.67	1627.07
575.02	1612.22
575.37	1597.14
575.72	1581.90
576.08	1567.11
576.43	1552.33
576.78	1537.66
577.13	1523.07
577.49	1508.42
577.84	1493.78
578.19	1479.31
578.54	1464.88
578.90	1450.35
579.25	1435.36
579.60	1421.51
579.95	1407.57
580.30	1393.86
580.66	1380.21
581.01	1366.69
581.36	1353.02
581.71	1339.37
582.06	1325.72
582.42	1312.24
582.77	1299.20
583.12	1286.37
583.47	1273.38
583.82	1260.56
584.17	1247.66
584.53	1234.89
584.88	1222.43
585.23	1209.75
585.58	1197.36
585.93	1185.02
586.28	1173.32
586.63	1161.44
586.98	1149.52
587.34	1137.90
587.69	1126.11
588.04	1114.65
588.39	1103.35
588.74	1091.97
589.09	1080.93
589.44	1069.34
589.79	1058.39
590.14	1047.49
590.49	1036.80
590.84	1026.32
591.19	1015.90
591.54	1005.56
591.89	994.94
592.25	984.43
592.60	973.93
592.95	963.65
593.30	953.43
593.65	943.11
594.00	933.07
594.35	923.66
594.70	913.84
595.05	904.67
595.40	895.29
595.75	885.78
596.10	876.75
596.45	867.56
596.80	858.83
597.15	850.06
597.50	841.31
597.85	832.86
598.19	824.41
598.54	815.93
598.89	807.60
599.24	799.72
599.59	791.94
599.94	784.61
600.29	777.06
600.64	769.61
600.99	762.13
601.34	754.85
601.69	747.04
602.04	739.81
602.39	732.67
602.74	725.73
603.08	718.88
603.43	712.06
603.78	705.37
604.13	698.82
604.48	692.23
604.83	685.89
605.18	679.55
605.53	673.27
605.87	666.92
606.22	660.87
606.57	654.75
606.92	648.49
607.27	642.41
607.62	636.70
607.96	631.06
608.31	625.69
608.66	620.19
609.01	614.95
609.36	609.91
609.70	604.77
610.05	599.60
610.40	594.55
610.75	589.44
611.10	584.67
611.44	579.80
611.79	575.06
612.14	570.32
612.49	565.55
612.83	561.04
613.18	556.72
613.53	552.41
613.88	548.11
614.22	544.04
614.57	539.88
614.92	535.72
615.27	531.71
615.61	527.73
615.96	523.86
616.31	520.00
616.65	516.10
617.00	512.32
617.35	508.66
617.70	505.07
618.04	501.64
618.39	498.13
618.74	494.77
619.08	491.35
619.43	488.00
619.78	484.80
620.12	481.58
620.47	478.55
620.82	475.50
621.16	472.53
621.51	469.67
621.85	466.86
622.20	464.14
622.55	461.36
622.89	458.66
623.24	456.09
623.59	453.53
623.93	451.04
624.28	448.64
624.62	446.43
624.97	444.23
625.32	441.85
625.66	439.47
626.01	437.18
626.35	435.06
626.70	432.89
627.04	430.85
627.39	428.72
627.73	426.64
628.08	424.69
628.43	422.79
628.77	420.85
629.12	419.01
629.46	417.13
629.81	415.40
630.15	413.58
630.50	411.78
630.84	410.06
631.19	408.42
631.53	406.81
631.88	405.03
632.22	403.33
632.57	401.97
632.91	400.58
633.26	399.24
633.60	397.83
633.95	396.52
634.29	395.08
634.64	393.73
634.98	392.25
635.32	390.91
635.67	389.66
636.01	388.41
636.36	387.20
636.70	386.12
637.05	384.88
637.39	383.80
637.73	382.70
638.08	381.64
638.42	380.56
638.77	379.39
639.11	378.21
639.45	377.10
639.80	375.93
640.14	374.81
640.49	373.66
640.83	372.58
641.17	371.48
641.52	370.44
641.86	369.45
642.20	368.61
642.55	367.59
642.89	366.58
643.23	365.58
643.58	364.71
643.92	363.68
644.26	362.73
644.61	361.83
644.95	360.91
645.29	360.00
645.64	359.05
645.98	358.17
646.32	357.38
646.66	356.50
647.01	355.62
647.35	354.83
647.69	354.01
648.04	353.22
648.38	352.40
648.72	351.64
649.06	350.87
649.41	350.08
649.75	349.33
650.09	348.63
650.43	347.93
650.78	347.15
651.12	346.42
651.46	345.71
651.80	345.01
652.14	344.30
652.49	343.61
652.83	342.90
653.17	342.23
653.51	341.55
653.85	340.97
654.20	340.35
654.54	339.64
654.88	339.00
655.22	338.37
655.56	337.69
655.90	337.01
656.25	336.38
656.59	335.72
656.93	335.14
657.27	334.58
657.61	333.91
657.95	333.34
658.29	332.76
658.64	332.25
658.98	331.67
659.32	331.08
659.66	330.52
660.00	329.98
660.34	329.42
660.68	328.85
661.02	328.20
661.36	327.60
661.70	327.05
662.05	326.51
662.39	326.02
662.73	325.60
663.07	325.20
663.41	324.71
663.75	324.18
664.09	323.66
664.43	323.05
664.77	322.56
665.11	321.97
665.45	321.43
665.79	320.88
666.13	320.31
666.47	319.78
666.81	319.22
667.15	318.65
667.49	318.17
667.83	317.73
668.17	317.30
668.51	316.86
668.85	316.45
669.19	316.07
669.53	315.54
669.87	315.04
670.21	314.54
670.55	314.06
670.89	313.73
671.23	313.28
671.57	312.87
671.91	312.50
672.25	312.14
672.58	311.79
672.92	311.33
673.26	310.96
673.60	310.58
673.94	310.20
674.28	309.84
674.62	309.47
674.96	309.02
675.30	308.61
675.64	308.18
675.97	307.73
676.31	307.23
676.65	306.79
676.99	306.43
677.33	305.97
677.67	305.55
678.01	305.00
678.34	304.57
678.68	304.16
679.02	303.69
679.36	303.24
679.70	302.77
680.04	302.34
680.37	301.90
680.71	301.46
681.05	301.07
681.39	300.63
681.73	300.16
682.06	299.70
682.40	299.28
682.74	298.90
683.08	298.54
683.42	298.13
683.75	297.72
684.09	297.20
684.43	296.76
684.77	296.30
685.10	295.93
685.44	295.54
685.78	295.11
686.12	294.70
686.45	294.27
686.79	293.82
687.13	293.41
687.46	292.96
687.80	292.54
688.14	292.03
688.48	291.60
688.81	291.18
689.15	290.82
689.49	290.36
689.82	289.90
690.16	289.38
690.50	288.94
690.83	288.51
691.17	288.07
691.51	287.65
691.84	287.26
692.18	286.82
692.52	286.35
692.85	285.92
693.19	285.57
693.52	285.16
693.86	284.75
694.20	284.33
694.53	283.93
694.87	283.49
695.21	283.08
695.54	282.67
695.88	282.21
696.21	281.71
696.55	281.30
696.88	280.88
697.22	280.47
697.56	280.08
697.89	279.62
698.23	279.22
698.56	278.78
698.90	278.38
699.23	277.94
699.57	277.53
699.90	277.09
700.24	276.62
700.58	276.22
700.91	275.86
701.25	275.61
701.58	275.30
701.92	274.98
702.25	274.62
702.59	274.22
702.92	273.85
703.26	273.48
703.59	273.11
703.93	272.87
704.26	272.51
704.60	272.12
704.93	271.73
705.26	271.35
705.60	271.02
705.93	270.59
706.27	270.28
706.60	269.98
706.94	269.68
707.27	269.28
707.61	268.91
707.94	268.51
708.27	267.99
708.61	267.54
708.94	267.14
709.28	266.79
709.61	266.42
709.94	266.12
710.28	265.82
710.61	265.52
710.95	265.04
711.28	264.83
711.61	264.50
711.95	264.24
712.28	263.90
712.61	263.54
712.95	263.30
713.28	263.05
713.61	262.68
713.95	262.33
714.28	262.05
714.61	261.72
714.95	261.41
715.28	261.10
715.61	260.81
715.95	260.54
716.28	260.22
716.61	259.95
716.95	259.60
717.28	259.27
717.61	258.95
717.94	258.67
718.28	258.26
718.61	257.97
718.94	257.65
719.27	257.39
719.61	257.16
719.94	256.87
720.27	256.51
720.60	256.26
720.94	256.00
721.27	255.75
721.60	255.54
721.93	255.29
722.27	255.11
722.60	254.87
722.93	254.58
723.26	254.36
723.59	254.11
723.93	253.92
724.26	253.70
724.59	253.46
724.92	253.24
725.25	253.07
725.59	252.85
725.92	252.66
726.25	252.43
726.58	252.20
726.91	251.97
727.24	251.77
727.57	251.53
727.91	251.29
728.24	251.10
728.57	250.88
728.90	250.70
729.23	250.44
729.56	250.31
729.89	250.13
730.22	249.91
730.55	249.71
730.89	249.50
731.22	249.30
731.55	249.10
731.88	248.91
732.21	248.68
732.54	248.48
732.87	248.29
733.20	248.12
733.53	247.94
733.86	247.77
734.19	247.57
734.52	247.42
734.85	247.38
735.18	247.18
735.51	247.06
735.84	246.88
736.17	246.78
736.50	246.51
736.83	246.54
737.16	246.38
737.49	246.23
737.82	246.06
738.15	245.94
738.48	245.78
738.81	245.62
739.14	245.45
739.47	245.28
739.80	245.13
740.13	245.00
740.46	244.82
740.79	244.66
741.12	244.51
741.45	244.34
741.78	244.10
742.11	244.00
742.44	243.81
742.77	243.68
743.10	243.50
743.43	243.36
743.75	243.03
744.08	243.15
744.41	243.00
744.74	242.85
745.07	242.68
745.40	242.59
745.73	242.52
746.06	242.40
746.39	242.31
746.71	242.16
747.04	242.01
747.37	241.89
747.70	241.78
748.03	241.65
748.36	241.54
748.68	241.41
749.01	241.25
749.34	241.13
749.67	241.02
750.00	240.94
750.33	240.95
750.65	240.85
750.98	240.49
751.31	240.40
751.64	240.30
751.97	240.28
752.29	240.14
752.62	239.95
752.95	239.83
753.28	239.68
753.60	239.56
753.93	239.49
754.26	239.40
754.59	239.24
754.91	239.13
755.24	239.02
755.57	238.91
755.90	238.79
756.22	238.68
756.55	238.53
756.88	238.39
757.20	238.18
757.53	238.03
757.86	237.92
758.19	237.83
758.51	237.73
758.84	237.55
759.17	237.43
759.49	237.36
759.82	237.34
760.15	237.28
760.47	237.20
760.80	237.07
761.13	237.00
761.45	236.92
761.78	236.83
762.11	236.76
762.43	236.66
762.76	236.58
763.08	236.53
763.41	236.47
763.74	236.40
764.06	236.31
764.39	236.24
764.71	236.16
765.04	236.05
765.37	235.97
765.69	235.90
766.02	235.82
766.34	235.74
766.67	235.60
767.00	235.55
767.32	235.58
767.65	235.61
767.97	235.52
768.30	235.47
768.62	235.42
768.95	235.32
769.27	235.26
769.60	235.22
769.92	235.12
770.25	235.03
770.57	234.94
770.90	234.89
771.22	234.83
771.55	234.79
771.87	234.76
772.20	234.70
772.52	234.80
772.85	234.95
773.17	234.90
773.50	234.85
773.82	234.77
774.15	234.63
774.47	234.46
774.80	234.40
775.12	234.35
775.45	234.29
775.77	234.26
776.09	234.22
776.42	234.19
776.74	234.20
777.07	234.15
777.39	234.12
777.72	234.06
778.04	234.03
778.36	233.97
778.69	233.93
779.01	233.90
779.33	233.70
779.66	233.45
779.98	233.41
780.31	233.38
780.63	233.41
780.95	233.40
781.28	233.37
781.60	233.32
781.92	233.29
782.25	233.25
782.57	233.21
782.89	233.16
783.22	233.11
783.54	233.04
783.86	233.02
784.19	232.98
784.51	233.00
784.83	232.94
785.16	232.92
785.48	232.88
785.80	232.86
786.12	232.85
786.45	232.82
786.77	232.79
787.09	232.75
787.42	232.66
787.74	232.63
788.06	232.61
788.38	232.59
788.71	232.54
789.03	232.51
789.35	232.50
789.67	232.46
789.99	232.44
790.32	232.39
790.64	232.38
790.96	232.50
791.28	232.41
791.61	232.39
791.93	232.37
792.25	232.33
792.57	232.42
792.89	232.36
793.21	232.36
793.54	232.32
793.86	232.29
794.18	232.27
794.50	232.22
794.82	232.19
795.14	232.18
795.47	232.19
795.79	232.18
796.11	232.13
796.43	232.10
796.75	232.09
797.07	232.08
797.39	232.05
797.71	231.89
798.04	231.89
798.36	231.88
798.68	231.85
799.00	231.84
799.32	231.74
799.64	231.75
799.96	231.72
800.28	231.73
800.60	231.70
800.92	231.69
801.24	231.66
801.56	231.66
801.89	231.63
802.21	231.61
802.53	231.56
802.85	231.58
803.17	231.64
803.49	231.57
803.81	231.54
804.13	231.51
804.45	231.47
804.77	231.46
805.09	231.45
805.41	231.41
805.73	231.37
806.05	231.31
806.37	231.28
806.69	231.26
807.01	231.21
807.33	231.22
807.65	231.15
807.97	231.20
808.28	231.17
808.60	231.15
808.92	231.11
809.24	231.23
809.56	231.18
809.88	231.11
810.20	231.12
810.52	231.13
810.84	231.10
811.16	231.08
811.48	231.04
811.80	231.08
812.12	231.07
812.43	231.09
812.75	231.09
813.07	231.06
813.39	231.06
813.71	231.02
814.03	230.98
814.35	230.98
814.67	230.90
814.98	230.87
815.30	230.86
815.62	230.83
815.94	230.68
816.26	230.68
816.58	230.64
816.89	230.63
817.21	230.57
817.53	230.56
817.85	230.56
818.17	230.56
818.48	230.47
818.80	230.49
819.12	230.46
819.44	230.42
819.76	230.38
820.07	230.36
820.39	230.35
820.71	230.36
821.03	230.35
821.34	230.33
821.66	230.33
821.98	230.35
822.30	230.34
822.61	230.45
822.93	230.42
823.25	230.40
823.57	230.38
823.88	230.40
824.20	230.40
824.52	230.42
824.83	230.41
825.15	230.38
825.47	230.35
825.79	230.37
826.10	230.35
826.42	230.33
826.74	230.34
827.05	230.32
827.37	230.32
827.69	230.31
828.00	230.31
828.32	230.31
828.64	230.27
828.95	230.35
829.27	230.28
829.58	230.27
829.90	230.29
830.22	230.30
830.53	230.27
830.85	230.23
831.17	230.17
831.48	230.17
831.80	230.17
832.11	230.16
832.43	230.12
832.75	230.11
833.06	230.21
833.38	230.16
833.69	230.15
834.01	230.15
834.32	230.13
834.64	230.11
834.96	230.10
835.27	230.11
835.59	230.03
835.90	230.00
836.22	230.00
836.53	229.97
836.85	229.94
837.16	230.12
837.48	230.13
837.79	230.17
838.11	230.16
838.42	230.16
838.74	230.17
839.05	230.14
839.37	230.13
839.68	230.03
840.00	230.02
840.31	230.04
840.63	230.02
840.94	230.01
841.26	229.99
841.57	229.98
841.88	229.99
842.20	229.97
842.51	229.94
842.83	229.93
843.14	230.09
843.46	230.09
843.77	229.99
844.08	229.97
844.40	229.93
844.71	229.91
845.03	229.91
845.34	229.89
845.65	229.89
845.97	229.88
846.28	229.91
846.60	229.91
846.91	229.89
847.22	229.87
847.54	229.91
847.85	229.91
848.16	229.90
848.48	229.87
848.79	229.93
849.10	229.94
849.42	229.95
849.73	229.79
850.04	229.78
850.36	229.71
850.67	229.74
850.98	229.75
851.30	229.75
851.61	229.75
851.92	229.75
852.23	229.80
852.55	229.82
852.86	229.81
853.17	229.82
853.49	229.87
853.80	229.90
854.11	229.91
854.42	229.93
854.74	229.90
855.05	229.92
855.36	229.83
855.67	229.83
855.99	229.83
856.30	230.02
856.61	230.01
856.92	230.02
857.23	230.01
857.55	229.99
857.86	229.97
858.17	229.99
858.48	229.94
858.79	229.90
859.11	229.92
859.42	229.91
859.73	229.88
860.04	229.86
860.35	229.80
860.66	229.74
860.98	229.74
861.29	229.77
861.60	229.74
861.91	229.76
862.22	229.72
862.53	229.69
862.84	229.48
863.16	229.51
863.47	229.48
863.78	229.44
864.09	229.45
864.40	229.47
864.71	229.46
865.02	229.50
865.33	229.47
865.64	229.43
865.95	229.42
866.27	229.53
866.58	229.50
866.89	229.53
867.20	229.52
867.51	229.49
867.82	229.47
868.13	229.53
868.44	229.49
868.75	229.54
869.06	229.55
869.37	229.58
869.68	229.53
869.99	229.56
870.30	229.59
870.61	229.59
870.92	229.55
871.23	229.55
871.54	229.56
871.85	229.59
872.16	229.61
872.47	229.59
872.78	229.49
873.09	229.51
873.40	229.49
873.71	229.50
874.02	229.51
874.33	229.49
874.64	229.45
874.95	229.48
875.26	229.43
875.56	229.42
875.87	229.40
876.18	229.38
876.49	229.55
876.80	229.53
877.11	229.50
877.42	229.52
877.73	229.52
878.04	229.49
878.35	229.49
878.66	229.49
878.96	229.49
879.27	229.48
879.58	229.47
879.89	229.47
880.20	229.51
880.51	229.50
880.82	229.51
881.12	229.52
881.43	229.48
881.74	229.47
882.05	229.45
882.36	229.47
882.67	229.49
882.97	229.31
883.28	229.29
883.59	229.29
883.90	229.31
884.21	229.33
884.51	229.32
884.82	229.31
885.13	229.30
885.44	229.31
885.74	229.31
886.05	229.30
886.36	229.31
886.67	229.25
886.98	229.34
887.28	229.35
887.59	229.34
887.90	229.36
888.20	229.35
888.51	229.38
888.82	229.36
889.13	229.37
889.43	229.53
889.74	229.52
890.05	229.52
890.35	229.50
890.66	229.47
890.97	229.45
891.28	229.44
891.58	229.44
891.89	229.44
892.20	229.42
892.50	229.40
892.81	229.40
893.12	229.39
893.42	229.32
893.73	229.32
894.04	229.33
894.34	229.34
894.65	229.34
894.95	229.33
895.26	229.34
895.57	229.40
895.87	229.22
896.18	229.27
896.48	229.28
896.79	229.28
897.10	229.31
897.40	229.32
897.71	229.35
898.01	229.32
898.32	229.34
898.63	229.34
898.93	229.36
899.24	229.36
899.54	229.36
899.85	229.35
900.15	229.34
900.46	229.33
900.76	229.34
901.07	229.34
901.38	229.32
901.68	229.35
901.99	229.26
902.29	229.27
902.60	229.25
902.90	229.24
903.21	229.23
903.51	229.21
903.82	229.24
904.12	229.23
904.43	229.25
904.73	229.24
905.03	229.25
905.34	229.40
905.64	229.37
905.95	229.38
906.25	229.38
906.56	229.37
906.86	229.38
907.17	229.35
907.47	229.37
907.77	229.37
908.08	229.32
908.38	229.32
908.69	229.33
908.99	229.35
909.30	229.36
909.60	229.36
909.90	229.35
910.21	229.30
910.51	229.26
910.81	229.25
911.12	229.26
911.42	229.25
911.73	229.09
912.03	229.11
912.33	229.14
912.64	229.12
912.94	229.09
913.24	229.06
913.55	229.05
913.85	229.04
914.15	229.06
914.46	229.09
914.76	229.08
915.06	229.08
915.37	229.05
915.67	229.04
915.97	229.05
916.27	229.03
916.58	229.04
916.88	229.04
917.18	229.02
917.49	229.14
917.79	229.13
918.09	229.15
918.39	229.19
918.70	229.16
919.00	229.18
919.30	229.27
919.60	229.25
919.91	229.24
920.21	229.25
920.51	229.21
920.81	229.20
921.12	229.22
921.42	229.22
921.72	229.22
922.02	229.23
922.32	229.25
922.63	229.25
922.93	229.35
923.23	229.36
923.53	229.36
923.83	229.24
924.13	229.25
924.44	229.25
924.74	229.27
925.04	229.31
925.34	229.30
925.64	229.23
925.94	229.24
926.24	229.34
926.55	229.31
926.85	229.34
927.15	229.33
927.45	229.33
927.75	229.34
928.05	229.35
928.35	229.34
928.65	229.36
928.95	229.37
929.26	229.29
929.56	229.32
929.86	229.32
930.16	229.31
930.46	229.30
930.76	229.30
931.06	229.22
931.36	229.18
931.66	229.22
931.96	229.23
932.26	229.24
932.56	229.16
932.86	229.17
933.16	229.18
933.46	229.16
933.76	229.12
934.06	229.14
934.36	229.19
934.66	229.18
934.96	229.15
935.26	229.16
935.56	229.18
935.86	229.14
936.16	229.12
936.46	229.11
936.76	229.10
937.06	229.07
937.36	229.09
937.66	229.08
937.96	229.07
938.26	229.02
938.56	229.01
938.86	229.03
939.16	229.08
939.46	229.08
939.76	229.09
940.06	229.10
940.35	229.06
940.65	228.97
940.95	228.99
941.25	228.94
941.55	228.93
941.85	228.91
942.15	228.95
942.45	229.00
942.75	229.00
943.04	229.01
943.34	229.05
943.64	229.03
943.94	229.01
944.24	229.02
944.54	229.04
944.84	229.03
945.13	229.02
945.43	228.98
945.73	228.98
946.03	228.96
946.33	228.95
946.62	228.94
946.92	228.95
947.22	228.96
947.52	228.99
947.82	229.00
948.11	228.99
948.41	228.95
948.71	228.90
949.01	228.91
949.31	228.90
949.60	228.87
949.90	228.90
950.20	228.89
950.50	228.88
950.79	228.86
951.09	228.89
951.39	228.89
951.69	228.87
951.98	228.89
952.28	228.90
952.58	228.90
952.87	228.90
953.17	228.93
953.47	228.90
953.76	228.90
954.06	228.88
954.36	228.86
954.66	228.87
954.95	228.91
955.25	228.92
955.55	228.94
955.84	228.91
956.14	228.92
956.44	228.95
956.73	228.92
957.03	228.94
957.32	228.93
957.62	228.92
957.92	228.96
958.21	228.95
958.51	229.14
958.81	229.16
959.10	229.18
959.40	229.20
959.69	229.21
959.99	229.23
960.29	229.24
960.58	229.24
960.88	229.29
961.17	229.28
961.47	229.29
961.76	229.28
962.06	229.33
962.36	229.31
962.65	229.31
962.95	229.32
963.24	229.32
963.54	229.32
963.83	229.33
964.13	229.31
964.42	229.30
964.72	229.17
965.01	229.17
965.31	229.16
965.60	229.12
965.90	229.24
966.19	229.20
966.49	229.21
966.78	229.21
967.08	229.19
967.37	229.19
967.67	229.16
967.96	229.19
968.26	229.17
968.55	229.19
968.85	229.19
969.14	229.18
969.43	229.17
969.73	229.16
970.02	229.15
970.32	229.14
970.61	229.11
970.91	229.06
971.20	229.04
971.49	229.03
971.79	229.04
972.08	228.92
972.38	228.93
972.67	228.92
972.96	228.95
973.26	228.91
973.55	228.96
973.85	228.95
974.14	228.93
974.43	228.95
974.73	228.91
975.02	228.90
975.31	228.91
975.61	228.91
975.90	228.88
976.19	228.86
976.49	228.87
976.78	228.88
977.07	228.88
977.37	228.90
977.66	228.93
977.95	228.91
978.24	228.91
978.54	228.94
978.83	228.93
979.12	228.92
979.42	228.93
979.71	228.89
980.00	228.89
980.29	228.90
980.59	228.87
980.88	228.93
981.17	228.92
981.46	228.92
981.76	228.93
982.05	228.99
982.34	229.00
982.63	229.01
982.93	229.01
983.22	229.04
983.51	229.04
983.80	229.06
984.09	229.08
984.39	229.08
984.68	229.05
984.97	229.05
985.26	229.03
985.55	229.04
985.85	229.01
986.14	229.05
986.43	229.07
986.72	229.06
987.01	229.00
987.30	229.00
987.59	229.00
987.89	229.00
988.18	228.94
988.47	228.92
988.76	228.90
989.05	228.89
989.34	228.86
989.63	228.90
989.92	228.87
990.22	228.85
990.51	228.84
990.80	228.84
991.09	228.87
991.38	228.88
991.67	228.86
991.96	228.85
992.25	228.84
992.54	228.79
992.83	228.79
993.12	228.78
993.41	228.81
993.70	228.87
993.99	228.89
994.28	228.93
994.58	228.96
994.87	228.94
995.16	228.96
995.45	228.95
995.74	228.88
996.03	228.91
996.32	228.93
996.61	228.97
996.90	228.96
997.19	228.94
997.48	228.95
997.77	228.93
998.06	228.95
998.34	228.94
998.63	228.96
998.92	228.95
999.21	228.99
999.50	228.99
999.79	228.93
1000.08	228.93
1000.37	228.92
1000.66	228.89
1000.95	228.95
1001.24	228.94
1001.53	228.97
1001.82	228.98
1002.11	228.94
1002.40	228.96
1002.68	229.00
1002.97	229.13
1003.26	229.12
1003.55	229.09
1003.84	229.11
1004.13	229.16
1004.42	229.16
1004.71	229.16
1004.99	229.15
1005.28	229.19
1005.57	229.19
1005.86	229.18
1006.15	229.18
1006.44	229.15
1006.72	229.17
1007.01	229.14
1007.30	229.14
1007.59	229.12
1007.88	229.11
1008.17	229.11
1008.45	229.09
1008.74	229.01
1009.03	228.93
1009.32	228.92
1009.60	228.92
1009.89	228.90
1010.18	228.84
1010.47	228.84
1010.76	228.84
1011.04	228.84
1011.33	228.84
1011.62	228.84
1011.91	228.85
1012.19	228.84
1012.48	228.84
1012.77	228.83
1013.05	228.90
1013.34	228.90
1013.63	228.89
1013.92	228.91
1014.20	228.90
1014.49	228.90
1014.78	228.93
1015.06	228.87
1015.35	228.89
1015.64	228.90
1015.92	228.93
1016.21	228.94
1016.50	228.95
1016.78	228.96
1017.07	228.97
1017.36	228.94
1017.64	228.92
1017.93	228.95
1018.22	228.93
1018.50	228.93
1018.79	228.93
1019.08	228.86
1019.36	228.88
1019.65	228.86
1019.93	228.90
1020.22	228.91
1020.51	229.00
1020.79	228.97
1021.08	228.60
1021.36	228.67
1021.65	228.86
1021.94	228.77
1022.22	228.98
1022.51	228.62
1022.79	229.59
1023.08	228.94
1023.36	230.86
1023.65	228.33
>>>>>End Processed Spectral Data<<<<<
