SpectraSuite Data File
++++++++++++++++++++++++++++++++++++
Date: Tue Oct 06 19:27:43 EDT 2015
User: lab3
Dark Spectrum Present: No
Reference Spectrum Present: No
Number of Sampled Component Spectra: 1
Spectrometers: USB2E7196
Integration Time (usec): 66000 (USB2E7196)
Spectra Averaged: 5000 (USB2E7196)
Boxcar Smoothing: 10 (USB2E7196)
Correct for Electrical Dark: No (USB2E7196)
Strobe/Lamp Enabled: No (USB2E7196)
Correct for Detector Non-linearity: No (USB2E7196)
Correct for Stray Light: No (USB2E7196)
Number of Pixels in Processed Spectrum: 2048
>>>>>Begin Processed Spectral Data<<<<<
339.09	0.00
339.48	214.63
339.86	216.01
340.24	217.51
340.63	218.82
341.01	222.95
341.39	221.55
341.78	223.03
342.16	224.35
342.54	224.55
342.93	213.12
343.31	223.89
343.69	224.42
344.07	224.88
344.46	225.32
344.84	225.73
345.22	225.93
345.60	226.21
345.99	226.41
346.37	226.55
346.75	226.68
347.13	226.76
347.52	226.85
347.90	226.97
348.28	227.02
348.66	227.10
349.05	227.09
349.43	227.15
349.81	227.22
350.19	227.29
350.57	227.37
350.96	227.47
351.34	227.57
351.72	227.69
352.10	227.81
352.48	227.88
352.87	227.92
353.25	227.99
353.63	228.05
354.01	228.11
354.39	228.19
354.77	228.26
355.15	228.39
355.54	228.43
355.92	228.43
356.30	228.51
356.68	228.69
357.06	228.77
357.44	228.81
357.82	228.87
358.20	229.08
358.58	229.14
358.97	229.21
359.35	229.31
359.73	229.40
360.11	229.44
360.49	229.51
360.87	229.56
361.25	229.63
361.63	229.74
362.01	229.79
362.39	229.81
362.77	229.87
363.15	229.88
363.53	229.92
363.91	229.96
364.29	229.99
364.67	229.84
365.05	229.87
365.43	229.92
365.81	229.96
366.19	229.91
366.57	229.99
366.95	229.99
367.33	229.95
367.71	229.95
368.09	229.99
368.47	229.98
368.85	229.98
369.23	230.00
369.61	229.92
369.99	229.97
370.37	229.98
370.75	230.10
371.13	230.07
371.51	230.02
371.89	230.02
372.27	230.00
372.65	229.99
373.03	229.95
373.41	229.90
373.78	229.85
374.16	229.72
374.54	229.62
374.92	229.57
375.30	229.53
375.68	229.46
376.06	229.42
376.44	229.36
376.82	229.32
377.19	229.27
377.57	229.23
377.95	229.12
378.33	229.06
378.71	228.85
379.09	228.81
379.47	228.79
379.84	228.72
380.22	228.65
380.60	228.57
380.98	228.53
381.36	228.48
381.73	228.42
382.11	228.41
382.49	228.38
382.87	228.32
383.25	228.28
383.62	228.45
384.00	228.37
384.38	228.34
384.76	228.34
385.13	228.36
385.51	228.32
385.89	228.27
386.27	228.24
386.64	228.24
387.02	228.18
387.40	228.14
387.78	228.12
388.15	228.11
388.53	228.08
388.91	228.05
389.29	228.02
389.66	228.03
390.04	227.98
390.42	227.99
390.79	227.99
391.17	227.98
391.55	227.77
391.92	227.77
392.30	227.79
392.68	227.74
393.05	227.72
393.43	227.73
393.81	227.74
394.18	227.73
394.56	227.74
394.94	227.80
395.31	227.80
395.69	227.88
396.06	227.92
396.44	227.96
396.82	227.98
397.19	228.11
397.57	228.13
397.95	228.20
398.32	228.19
398.70	228.26
399.07	228.36
399.45	228.42
399.82	228.48
400.20	228.53
400.58	228.63
400.95	228.64
401.33	228.77
401.70	229.00
402.08	229.14
402.45	229.27
402.83	229.44
403.20	229.61
403.58	229.74
403.95	229.94
404.33	230.16
404.71	230.38
405.08	230.69
405.46	230.94
405.83	231.21
406.21	231.51
406.58	231.83
406.96	232.15
407.33	232.52
407.70	232.94
408.08	233.51
408.45	234.01
408.83	234.55
409.20	235.04
409.58	235.49
409.95	236.10
410.33	236.77
410.70	237.40
411.08	238.14
411.45	238.94
411.82	239.74
412.20	240.66
412.57	241.75
412.95	242.61
413.32	243.73
413.69	244.89
414.07	246.12
414.44	247.46
414.82	248.83
415.19	250.43
415.56	252.07
415.94	253.76
416.31	255.67
416.68	257.59
417.06	259.81
417.43	261.88
417.81	264.27
418.18	266.72
418.55	269.37
418.93	272.14
419.30	275.03
419.67	278.09
420.04	281.25
420.42	284.54
420.79	288.34
421.16	292.19
421.54	296.07
421.91	300.14
422.28	304.38
422.66	308.93
423.03	313.26
423.40	317.80
423.77	322.66
424.15	327.63
424.52	332.78
424.89	338.36
425.26	343.89
425.64	349.02
426.01	354.78
426.38	360.66
426.75	366.71
427.13	372.90
427.50	379.38
427.87	386.11
428.24	392.89
428.61	399.38
428.99	406.38
429.36	414.06
429.73	421.40
430.10	428.70
430.47	436.18
430.85	443.91
431.22	452.13
431.59	460.58
431.96	468.83
432.33	477.98
432.70	486.70
433.08	497.02
433.45	506.75
433.82	516.36
434.19	527.13
434.56	537.73
434.93	548.01
435.30	558.21
435.68	569.78
436.05	581.06
436.42	592.38
436.79	602.73
437.16	613.99
437.53	626.00
437.90	638.03
438.27	649.84
438.64	662.60
439.01	674.19
439.38	684.80
439.75	695.09
440.13	706.83
440.50	717.96
440.87	726.88
441.24	736.70
441.61	747.45
441.98	755.41
442.35	764.89
442.72	774.52
443.09	783.69
443.46	789.68
443.83	794.27
444.20	798.08
444.57	803.57
444.94	806.86
445.31	810.28
445.68	813.22
446.05	815.48
446.42	815.28
446.79	814.85
447.16	814.54
447.53	814.29
447.90	810.95
448.27	807.78
448.64	802.69
449.01	799.23
449.37	791.90
449.74	785.24
450.11	776.61
450.48	767.09
450.85	757.54
451.22	749.35
451.59	741.27
451.96	733.96
452.33	723.35
452.70	713.89
453.07	702.40
453.43	690.95
453.80	679.74
454.17	669.02
454.54	659.12
454.91	647.92
455.28	637.35
455.65	627.36
456.02	616.78
456.38	608.27
456.75	597.37
457.12	588.57
457.49	579.69
457.86	571.26
458.23	563.85
458.59	555.70
458.96	547.31
459.33	539.95
459.70	532.46
460.07	526.73
460.43	519.98
460.80	513.68
461.17	508.19
461.54	502.27
461.91	496.70
462.27	491.04
462.64	486.41
463.01	481.13
463.38	475.79
463.74	470.98
464.11	466.70
464.48	462.83
464.85	458.68
465.21	455.49
465.58	451.94
465.95	447.94
466.32	444.74
466.68	441.62
467.05	438.46
467.42	435.37
467.78	432.09
468.15	429.07
468.52	426.84
468.88	423.90
469.25	421.22
469.62	419.09
469.98	416.79
470.35	414.72
470.72	412.86
471.08	410.98
471.45	409.40
471.82	407.64
472.18	405.79
472.55	404.58
472.92	403.08
473.28	401.91
473.65	400.65
474.02	399.45
474.38	398.43
474.75	397.82
475.11	397.01
475.48	396.62
475.85	396.17
476.21	395.91
476.58	395.73
476.94	395.89
477.31	395.92
477.67	395.98
478.04	396.27
478.41	396.67
478.77	397.25
479.14	397.61
479.50	398.36
479.87	399.32
480.23	400.26
480.60	401.17
480.96	402.07
481.33	403.46
481.69	404.82
482.06	406.17
482.42	407.41
482.79	408.97
483.15	410.78
483.52	412.83
483.88	414.78
484.25	416.85
484.61	419.03
484.98	421.37
485.34	424.02
485.71	426.78
486.07	429.74
486.44	432.65
486.80	435.95
487.17	439.32
487.53	442.97
487.90	446.80
488.26	450.97
488.62	455.36
488.99	459.75
489.35	464.35
489.72	469.30
490.08	474.52
490.44	479.83
490.81	485.38
491.17	491.09
491.54	497.22
491.90	503.49
492.26	510.18
492.63	517.21
492.99	524.54
493.36	532.01
493.72	539.88
494.08	547.95
494.45	556.40
494.81	565.24
495.17	574.33
495.54	583.92
495.90	593.94
496.26	604.15
496.63	614.66
496.99	625.57
497.35	636.97
497.72	648.65
498.08	660.68
498.44	673.03
498.80	686.07
499.17	699.40
499.53	713.19
499.89	727.40
500.26	741.82
500.62	756.60
500.98	772.24
501.34	787.90
501.71	804.35
502.07	821.12
502.43	838.37
502.79	855.82
503.16	873.78
503.52	891.94
503.88	910.54
504.24	929.60
504.60	948.90
504.97	968.85
505.33	989.28
505.69	1010.76
506.05	1032.48
506.41	1054.13
506.78	1075.95
507.14	1098.33
507.50	1121.22
507.86	1144.50
508.22	1168.01
508.59	1191.43
508.95	1215.89
509.31	1240.87
509.67	1266.48
510.03	1292.02
510.39	1317.52
510.75	1343.15
511.12	1369.17
511.48	1395.41
511.84	1421.63
512.20	1448.26
512.56	1475.95
512.92	1503.48
513.28	1530.41
513.64	1557.79
514.00	1585.53
514.37	1613.55
514.73	1641.64
515.09	1669.03
515.45	1696.80
515.81	1724.78
516.17	1752.54
516.53	1779.69
516.89	1806.60
517.25	1833.88
517.61	1860.94
517.97	1888.72
518.33	1915.88
518.69	1942.96
519.05	1970.52
519.41	1998.23
519.77	2025.95
520.13	2052.19
520.49	2078.50
520.85	2105.20
521.21	2131.29
521.57	2157.77
521.93	2183.21
522.29	2209.32
522.65	2235.32
523.01	2261.00
523.37	2285.94
523.73	2311.63
524.09	2337.08
524.45	2362.26
524.81	2386.79
525.17	2411.26
525.53	2434.85
525.89	2458.90
526.25	2482.61
526.61	2504.60
526.97	2526.71
527.33	2548.69
527.68	2570.44
528.04	2591.85
528.40	2612.02
528.76	2632.38
529.12	2652.26
529.48	2672.80
529.84	2690.52
530.20	2708.67
530.56	2726.04
530.91	2743.67
531.27	2760.66
531.63	2776.71
531.99	2792.52
532.35	2808.03
532.71	2823.08
533.07	2838.51
533.42	2852.00
533.78	2865.68
534.14	2880.51
534.50	2894.14
534.86	2908.21
535.21	2920.15
535.57	2931.89
535.93	2943.44
536.29	2953.13
536.65	2962.71
537.00	2970.82
537.36	2980.39
537.72	2988.96
538.08	2997.02
538.44	3003.81
538.79	3010.35
539.15	3015.53
539.51	3019.90
539.87	3023.03
540.22	3024.57
540.58	3026.38
540.94	3029.03
541.29	3030.49
541.65	3030.57
542.01	3030.23
542.37	3028.24
542.72	3027.87
543.08	3025.71
543.44	3023.76
543.79	3021.53
544.15	3018.43
544.51	3015.46
544.87	3011.41
545.22	3006.38
545.58	3001.10
545.94	2996.06
546.29	2989.46
546.65	2983.07
547.01	2976.92
547.36	2971.30
547.72	2965.74
548.07	2958.42
548.43	2949.87
548.79	2941.07
549.14	2932.43
549.50	2923.95
549.86	2914.48
550.21	2903.31
550.57	2893.43
550.92	2881.64
551.28	2870.23
551.64	2859.19
551.99	2847.80
552.35	2835.95
552.70	2823.96
553.06	2812.44
553.41	2800.47
553.77	2788.23
554.13	2776.00
554.48	2762.48
554.84	2747.97
555.19	2734.04
555.55	2719.96
555.90	2706.42
556.26	2693.10
556.61	2678.67
556.97	2663.16
557.32	2648.11
557.68	2633.40
558.03	2618.30
558.39	2604.22
558.74	2590.75
559.10	2575.24
559.45	2559.88
559.81	2545.22
560.16	2530.19
560.52	2514.87
560.87	2499.76
561.23	2484.20
561.58	2469.29
561.94	2453.90
562.29	2438.03
562.64	2422.24
563.00	2406.57
563.35	2391.01
563.71	2375.09
564.06	2359.25
564.42	2343.95
564.77	2328.73
565.12	2313.15
565.48	2297.27
565.83	2281.61
566.19	2265.88
566.54	2250.45
566.89	2234.47
567.25	2218.39
567.60	2203.14
567.96	2187.15
568.31	2169.76
568.66	2153.35
569.02	2137.49
569.37	2122.20
569.72	2107.56
570.08	2092.39
570.43	2076.59
570.78	2060.61
571.14	2044.46
571.49	2028.33
571.84	2012.48
572.20	1995.35
572.55	1979.06
572.90	1962.90
573.26	1946.72
573.61	1929.87
573.96	1913.55
574.31	1897.06
574.67	1880.31
575.02	1863.28
575.37	1846.26
575.72	1830.09
576.08	1813.55
576.43	1796.26
576.78	1779.20
577.13	1762.32
577.49	1745.71
577.84	1729.59
578.19	1712.97
578.54	1696.39
578.90	1679.67
579.25	1662.84
579.60	1647.30
579.95	1631.43
580.30	1615.43
580.66	1599.19
581.01	1583.02
581.36	1566.96
581.71	1551.77
582.06	1536.58
582.42	1521.16
582.77	1506.27
583.12	1491.60
583.47	1476.96
583.82	1462.43
584.17	1447.38
584.53	1432.41
584.88	1417.77
585.23	1402.96
585.58	1388.58
585.93	1374.05
586.28	1360.63
586.63	1347.01
586.98	1332.90
587.34	1319.22
587.69	1305.37
588.04	1291.86
588.39	1278.67
588.74	1265.04
589.09	1251.54
589.44	1237.74
589.79	1224.55
590.14	1211.40
590.49	1198.30
590.84	1185.44
591.19	1172.97
591.54	1160.63
591.89	1147.84
592.25	1135.42
592.60	1122.86
592.95	1110.46
593.30	1098.46
593.65	1086.12
594.00	1074.10
594.35	1063.03
594.70	1051.21
595.05	1040.06
595.40	1028.71
595.75	1017.19
596.10	1006.35
596.45	995.49
596.80	985.03
597.15	974.56
597.50	964.09
597.85	953.88
598.19	943.69
598.54	933.48
598.89	923.84
599.24	914.61
599.59	905.16
599.94	896.40
600.29	887.64
600.64	878.68
600.99	869.58
601.34	860.82
601.69	851.53
602.04	843.21
602.39	834.76
602.74	826.52
603.08	818.41
603.43	810.28
603.78	802.14
604.13	794.07
604.48	786.05
604.83	778.25
605.18	770.55
605.53	763.00
605.87	755.42
606.22	747.94
606.57	740.40
606.92	732.77
607.27	725.17
607.62	717.80
607.96	710.71
608.31	704.16
608.66	697.48
609.01	691.08
609.36	684.63
609.70	678.14
610.05	671.64
610.40	665.38
610.75	659.08
611.10	653.01
611.44	646.94
611.79	641.02
612.14	635.01
612.49	629.08
612.83	623.47
613.18	617.92
613.53	612.34
613.88	606.93
614.22	601.91
614.57	596.81
614.92	591.80
615.27	586.92
615.61	581.91
615.96	576.94
616.31	571.98
616.65	567.18
617.00	562.52
617.35	557.94
617.70	553.36
618.04	548.91
618.39	544.59
618.74	540.52
619.08	536.40
619.43	532.42
619.78	528.38
620.12	524.31
620.47	520.47
620.82	516.76
621.16	513.05
621.51	509.38
621.85	505.72
622.20	502.16
622.55	498.55
622.89	495.00
623.24	491.66
623.59	488.38
623.93	485.19
624.28	482.12
624.62	479.25
624.97	476.40
625.32	473.47
625.66	470.50
626.01	467.49
626.35	464.67
626.70	461.77
627.04	459.12
627.39	456.41
627.73	453.78
628.08	451.19
628.43	448.63
628.77	446.01
629.12	443.51
629.46	441.11
629.81	438.87
630.15	436.54
630.50	434.24
630.84	432.00
631.19	429.79
631.53	427.67
631.88	425.38
632.22	423.19
632.57	421.31
632.91	419.38
633.26	417.53
633.60	415.69
633.95	413.96
634.29	412.06
634.64	410.25
634.98	408.32
635.32	406.58
635.67	405.01
636.01	403.42
636.36	401.89
636.70	400.44
637.05	398.83
637.39	397.38
637.73	395.92
638.08	394.54
638.42	393.20
638.77	391.72
639.11	390.22
639.45	388.77
639.80	387.26
640.14	385.86
640.49	384.44
640.83	383.03
641.17	381.66
641.52	380.34
641.86	379.05
642.20	377.92
642.55	376.61
642.89	375.31
643.23	374.08
643.58	372.98
643.92	371.73
644.26	370.58
644.61	369.45
644.95	368.30
645.29	367.08
645.64	365.83
645.98	364.72
646.32	363.72
646.66	362.66
647.01	361.62
647.35	360.67
647.69	359.70
648.04	358.80
648.38	357.84
648.72	356.92
649.06	355.99
649.41	355.04
649.75	354.15
650.09	353.29
650.43	352.40
650.78	351.49
651.12	350.62
651.46	349.76
651.80	348.92
652.14	348.14
652.49	347.41
652.83	346.62
653.17	345.81
653.51	345.03
653.85	344.36
654.20	343.63
654.54	342.82
654.88	342.04
655.22	341.32
655.56	340.57
655.90	339.86
656.25	339.17
656.59	338.49
656.93	337.85
657.27	337.25
657.61	336.58
657.95	335.96
658.29	335.32
658.64	334.71
658.98	334.04
659.32	333.38
659.66	332.77
660.00	332.21
660.34	331.64
660.68	331.02
661.02	330.34
661.36	329.71
661.70	329.12
662.05	328.56
662.39	328.00
662.73	327.52
663.07	327.08
663.41	326.59
663.75	326.05
664.09	325.51
664.43	324.86
664.77	324.31
665.11	323.71
665.45	323.17
665.79	322.66
666.13	322.13
666.47	321.58
666.81	320.99
667.15	320.37
667.49	319.88
667.83	319.45
668.17	318.98
668.51	318.56
668.85	318.14
669.19	317.77
669.53	317.23
669.87	316.67
670.21	316.11
670.55	315.58
670.89	315.17
671.23	314.72
671.57	314.32
671.91	313.97
672.25	313.62
672.58	313.29
672.92	312.85
673.26	312.51
673.60	312.15
673.94	311.78
674.28	311.45
674.62	311.07
674.96	310.63
675.30	310.24
675.64	309.80
675.97	309.34
676.31	308.85
676.65	308.43
676.99	308.10
677.33	307.67
677.67	307.29
678.01	306.81
678.34	306.39
678.68	306.00
679.02	305.54
679.36	305.09
679.70	304.62
680.04	304.23
680.37	303.81
680.71	303.42
681.05	303.06
681.39	302.65
681.73	302.18
682.06	301.76
682.40	301.37
682.74	301.01
683.08	300.71
683.42	300.34
683.75	300.00
684.09	299.53
684.43	299.15
684.77	298.73
685.10	298.35
685.44	297.95
685.78	297.54
686.12	297.14
686.45	296.73
686.79	296.29
687.13	295.89
687.46	295.43
687.80	295.01
688.14	294.53
688.48	294.10
688.81	293.69
689.15	293.33
689.49	292.88
689.82	292.44
690.16	291.89
690.50	291.43
690.83	290.97
691.17	290.52
691.51	290.09
691.84	289.69
692.18	289.24
692.52	288.77
692.85	288.32
693.19	287.94
693.52	287.50
693.86	287.05
694.20	286.61
694.53	286.18
694.87	285.71
695.21	285.26
695.54	284.82
695.88	284.36
696.21	283.86
696.55	283.41
696.88	282.96
697.22	282.53
697.56	282.12
697.89	281.65
698.23	281.23
698.56	280.77
698.90	280.35
699.23	279.90
699.57	279.49
699.90	279.06
700.24	278.60
700.58	278.20
700.91	277.84
701.25	277.58
701.58	277.27
701.92	276.92
702.25	276.53
702.59	276.12
702.92	275.73
703.26	275.31
703.59	274.90
703.93	274.63
704.26	274.24
704.60	273.82
704.93	273.43
705.26	273.02
705.60	272.67
705.93	272.22
706.27	271.90
706.60	271.56
706.94	271.23
707.27	270.81
707.61	270.41
707.94	269.98
708.27	269.43
708.61	268.96
708.94	268.53
709.28	268.14
709.61	267.76
709.94	267.41
710.28	267.07
710.61	266.73
710.95	266.22
711.28	265.98
711.61	265.61
711.95	265.29
712.28	264.93
712.61	264.55
712.95	264.30
713.28	264.00
713.61	263.61
713.95	263.22
714.28	262.89
714.61	262.53
714.95	262.20
715.28	261.86
715.61	261.55
715.95	261.25
716.28	260.92
716.61	260.64
716.95	260.30
717.28	259.99
717.61	259.67
717.94	259.38
718.28	258.94
718.61	258.64
718.94	258.31
719.27	258.02
719.61	257.75
719.94	257.42
720.27	257.05
720.60	256.77
720.94	256.48
721.27	256.21
721.60	255.96
721.93	255.68
722.27	255.45
722.60	255.17
722.93	254.87
723.26	254.62
723.59	254.32
723.93	254.08
724.26	253.83
724.59	253.56
724.92	253.32
725.25	253.13
725.59	252.88
725.92	252.66
726.25	252.41
726.58	252.16
726.91	251.90
727.24	251.68
727.57	251.44
727.91	251.17
728.24	250.96
728.57	250.72
728.90	250.50
729.23	250.22
729.56	250.08
729.89	249.86
730.22	249.63
730.55	249.42
730.89	249.20
731.22	248.97
731.55	248.77
731.88	248.56
732.21	248.31
732.54	248.10
732.87	247.90
733.20	247.72
733.53	247.54
733.86	247.36
734.19	247.14
734.52	246.98
734.85	246.93
735.18	246.72
735.51	246.59
735.84	246.42
736.17	246.30
736.50	246.02
736.83	246.05
737.16	245.87
737.49	245.70
737.82	245.50
738.15	245.34
738.48	245.16
738.81	244.98
739.14	244.79
739.47	244.60
739.80	244.42
740.13	244.26
740.46	244.06
740.79	243.87
741.12	243.68
741.45	243.48
741.78	243.20
742.11	243.09
742.44	242.87
742.77	242.72
743.10	242.53
743.43	242.36
743.75	242.01
744.08	242.11
744.41	241.94
744.74	241.78
745.07	241.59
745.40	241.48
745.73	241.40
746.06	241.26
746.39	241.15
746.71	240.99
747.04	240.83
747.37	240.68
747.70	240.56
748.03	240.43
748.36	240.33
748.68	240.19
749.01	240.00
749.34	239.88
749.67	239.74
750.00	239.64
750.33	239.64
750.65	239.53
750.98	239.14
751.31	239.03
751.64	238.93
751.97	238.90
752.29	238.76
752.62	238.56
752.95	238.42
753.28	238.27
753.60	238.14
753.93	238.06
754.26	237.96
754.59	237.79
754.91	237.66
755.24	237.52
755.57	237.41
755.90	237.29
756.22	237.15
756.55	237.01
756.88	236.85
757.20	236.62
757.53	236.46
757.86	236.35
758.19	236.25
758.51	236.14
758.84	235.94
759.17	235.82
759.49	235.73
759.82	235.71
760.15	235.63
760.47	235.53
760.80	235.38
761.13	235.31
761.45	235.22
761.78	235.13
762.11	235.04
762.43	234.93
762.76	234.83
763.08	234.77
763.41	234.70
763.74	234.63
764.06	234.54
764.39	234.46
764.71	234.37
765.04	234.27
765.37	234.17
765.69	234.09
766.02	234.01
766.34	233.91
766.67	233.76
767.00	233.71
767.32	233.74
767.65	233.78
767.97	233.68
768.30	233.62
768.62	233.55
768.95	233.45
769.27	233.38
769.60	233.34
769.92	233.24
770.25	233.13
770.57	233.04
770.90	232.98
771.22	232.90
771.55	232.85
771.87	232.80
772.20	232.73
772.52	232.83
772.85	232.98
773.17	232.93
773.50	232.86
773.82	232.77
774.15	232.62
774.47	232.45
774.80	232.39
775.12	232.32
775.45	232.27
775.77	232.23
776.09	232.19
776.42	232.14
776.74	232.14
777.07	232.09
777.39	232.05
777.72	231.99
778.04	231.97
778.36	231.89
778.69	231.85
779.01	231.82
779.33	231.63
779.66	231.38
779.98	231.33
780.31	231.29
780.63	231.33
780.95	231.32
781.28	231.28
781.60	231.23
781.92	231.19
782.25	231.15
782.57	231.11
782.89	231.06
783.22	231.01
783.54	230.93
783.86	230.92
784.19	230.87
784.51	230.89
784.83	230.83
785.16	230.79
785.48	230.75
785.80	230.72
786.12	230.70
786.45	230.67
786.77	230.65
787.09	230.60
787.42	230.50
787.74	230.46
788.06	230.44
788.38	230.41
788.71	230.36
789.03	230.33
789.35	230.32
789.67	230.27
789.99	230.26
790.32	230.21
790.64	230.20
790.96	230.34
791.28	230.25
791.61	230.22
791.93	230.21
792.25	230.17
792.57	230.26
792.89	230.21
793.21	230.19
793.54	230.15
793.86	230.10
794.18	230.08
794.50	230.03
794.82	230.00
795.14	230.00
795.47	230.01
795.79	229.99
796.11	229.92
796.43	229.90
796.75	229.87
797.07	229.86
797.39	229.82
797.71	229.64
798.04	229.63
798.36	229.62
798.68	229.59
799.00	229.57
799.32	229.46
799.64	229.47
799.96	229.44
800.28	229.45
800.60	229.43
800.92	229.42
801.24	229.39
801.56	229.38
801.89	229.35
802.21	229.33
802.53	229.28
802.85	229.30
803.17	229.37
803.49	229.31
803.81	229.27
804.13	229.24
804.45	229.20
804.77	229.19
805.09	229.17
805.41	229.14
805.73	229.09
806.05	229.02
806.37	228.99
806.69	228.95
807.01	228.92
807.33	228.91
807.65	228.82
807.97	228.89
808.28	228.84
808.60	228.82
808.92	228.78
809.24	228.87
809.56	228.82
809.88	228.74
810.20	228.73
810.52	228.76
810.84	228.72
811.16	228.68
811.48	228.65
811.80	228.69
812.12	228.67
812.43	228.69
812.75	228.69
813.07	228.66
813.39	228.66
813.71	228.62
814.03	228.60
814.35	228.59
814.67	228.51
814.98	228.48
815.30	228.46
815.62	228.43
815.94	228.29
816.26	228.31
816.58	228.26
816.89	228.26
817.21	228.21
817.53	228.21
817.85	228.21
818.17	228.19
818.48	228.12
818.80	228.15
819.12	228.11
819.44	228.06
819.76	228.03
820.07	228.01
820.39	228.00
820.71	228.00
821.03	227.99
821.34	227.96
821.66	227.97
821.98	227.98
822.30	227.97
822.61	228.07
822.93	228.03
823.25	228.02
823.57	227.99
823.88	228.00
824.20	227.99
824.52	228.00
824.83	227.99
825.15	227.96
825.47	227.94
825.79	227.95
826.10	227.94
826.42	227.92
826.74	227.93
827.05	227.92
827.37	227.92
827.69	227.90
828.00	227.91
828.32	227.89
828.64	227.86
828.95	227.95
829.27	227.89
829.58	227.88
829.90	227.90
830.22	227.91
830.53	227.88
830.85	227.86
831.17	227.80
831.48	227.79
831.80	227.79
832.11	227.77
832.43	227.73
832.75	227.73
833.06	227.83
833.38	227.77
833.69	227.76
834.01	227.76
834.32	227.75
834.64	227.72
834.96	227.71
835.27	227.71
835.59	227.64
835.90	227.60
836.22	227.59
836.53	227.55
836.85	227.51
837.16	227.69
837.48	227.69
837.79	227.75
838.11	227.75
838.42	227.75
838.74	227.76
839.05	227.74
839.37	227.73
839.68	227.61
840.00	227.61
840.31	227.62
840.63	227.60
840.94	227.58
841.26	227.56
841.57	227.55
841.88	227.56
842.20	227.53
842.51	227.50
842.83	227.49
843.14	227.65
843.46	227.64
843.77	227.54
844.08	227.52
844.40	227.45
844.71	227.43
845.03	227.41
845.34	227.39
845.65	227.39
845.97	227.38
846.28	227.40
846.60	227.40
846.91	227.36
847.22	227.36
847.54	227.39
847.85	227.40
848.16	227.38
848.48	227.34
848.79	227.41
849.10	227.43
849.42	227.43
849.73	227.26
850.04	227.26
850.36	227.19
850.67	227.22
850.98	227.22
851.30	227.24
851.61	227.23
851.92	227.22
852.23	227.27
852.55	227.28
852.86	227.28
853.17	227.29
853.49	227.33
853.80	227.36
854.11	227.37
854.42	227.39
854.74	227.37
855.05	227.38
855.36	227.28
855.67	227.28
855.99	227.28
856.30	227.49
856.61	227.48
856.92	227.48
857.23	227.48
857.55	227.46
857.86	227.44
858.17	227.47
858.48	227.43
858.79	227.39
859.11	227.40
859.42	227.39
859.73	227.35
860.04	227.34
860.35	227.28
860.66	227.22
860.98	227.21
861.29	227.23
861.60	227.22
861.91	227.26
862.22	227.23
862.53	227.20
862.84	226.98
863.16	227.02
863.47	226.99
863.78	226.97
864.09	226.98
864.40	226.99
864.71	226.99
865.02	227.02
865.33	227.00
865.64	226.96
865.95	226.96
866.27	227.08
866.58	227.06
866.89	227.08
867.20	227.07
867.51	227.05
867.82	227.03
868.13	227.08
868.44	227.04
868.75	227.07
869.06	227.08
869.37	227.10
869.68	227.05
869.99	227.08
870.30	227.09
870.61	227.11
870.92	227.08
871.23	227.06
871.54	227.08
871.85	227.12
872.16	227.14
872.47	227.13
872.78	227.03
873.09	227.05
873.40	227.03
873.71	227.04
874.02	227.06
874.33	227.04
874.64	227.00
874.95	227.04
875.26	227.00
875.56	226.99
875.87	226.98
876.18	226.97
876.49	227.15
876.80	227.13
877.11	227.09
877.42	227.10
877.73	227.10
878.04	227.07
878.35	227.06
878.66	227.06
878.96	227.06
879.27	227.05
879.58	227.03
879.89	227.02
880.20	227.08
880.51	227.06
880.82	227.07
881.12	227.08
881.43	227.03
881.74	227.02
882.05	227.00
882.36	227.02
882.67	227.03
882.97	226.83
883.28	226.82
883.59	226.82
883.90	226.83
884.21	226.85
884.51	226.85
884.82	226.82
885.13	226.82
885.44	226.81
885.74	226.81
886.05	226.81
886.36	226.81
886.67	226.74
886.98	226.83
887.28	226.85
887.59	226.85
887.90	226.86
888.20	226.86
888.51	226.89
888.82	226.86
889.13	226.88
889.43	227.03
889.74	227.02
890.05	227.02
890.35	227.00
890.66	226.97
890.97	226.95
891.28	226.94
891.58	226.94
891.89	226.94
892.20	226.92
892.50	226.90
892.81	226.89
893.12	226.89
893.42	226.79
893.73	226.79
894.04	226.79
894.34	226.80
894.65	226.79
894.95	226.77
895.26	226.78
895.57	226.85
895.87	226.67
896.18	226.71
896.48	226.72
896.79	226.71
897.10	226.74
897.40	226.75
897.71	226.77
898.01	226.75
898.32	226.77
898.63	226.77
898.93	226.79
899.24	226.80
899.54	226.79
899.85	226.78
900.15	226.77
900.46	226.77
900.76	226.78
901.07	226.78
901.38	226.77
901.68	226.79
901.99	226.70
902.29	226.71
902.60	226.70
902.90	226.68
903.21	226.68
903.51	226.66
903.82	226.70
904.12	226.70
904.43	226.72
904.73	226.70
905.03	226.71
905.34	226.88
905.64	226.87
905.95	226.87
906.25	226.87
906.56	226.86
906.86	226.86
907.17	226.85
907.47	226.85
907.77	226.84
908.08	226.80
908.38	226.81
908.69	226.83
908.99	226.86
909.30	226.87
909.60	226.87
909.90	226.86
910.21	226.81
910.51	226.77
910.81	226.77
911.12	226.78
911.42	226.79
911.73	226.60
912.03	226.62
912.33	226.65
912.64	226.64
912.94	226.62
913.24	226.60
913.55	226.58
913.85	226.57
914.15	226.60
914.46	226.63
914.76	226.61
915.06	226.60
915.37	226.56
915.67	226.55
915.97	226.55
916.27	226.53
916.58	226.54
916.88	226.54
917.18	226.52
917.49	226.63
917.79	226.62
918.09	226.65
918.39	226.69
918.70	226.67
919.00	226.68
919.30	226.77
919.60	226.77
919.91	226.75
920.21	226.76
920.51	226.72
920.81	226.70
921.12	226.73
921.42	226.72
921.72	226.73
922.02	226.74
922.32	226.77
922.63	226.77
922.93	226.87
923.23	226.88
923.53	226.87
923.83	226.75
924.13	226.76
924.44	226.76
924.74	226.77
925.04	226.81
925.34	226.81
925.64	226.73
925.94	226.73
926.24	226.84
926.55	226.82
926.85	226.84
927.15	226.85
927.45	226.84
927.75	226.84
928.05	226.85
928.35	226.84
928.65	226.86
928.95	226.88
929.26	226.79
929.56	226.82
929.86	226.84
930.16	226.83
930.46	226.82
930.76	226.82
931.06	226.74
931.36	226.69
931.66	226.71
931.96	226.74
932.26	226.75
932.56	226.67
932.86	226.68
933.16	226.68
933.46	226.66
933.76	226.64
934.06	226.67
934.36	226.72
934.66	226.71
934.96	226.69
935.26	226.69
935.56	226.72
935.86	226.67
936.16	226.65
936.46	226.64
936.76	226.63
937.06	226.60
937.36	226.62
937.66	226.63
937.96	226.61
938.26	226.57
938.56	226.56
938.86	226.57
939.16	226.60
939.46	226.62
939.76	226.63
940.06	226.63
940.35	226.60
940.65	226.50
940.95	226.52
941.25	226.47
941.55	226.45
941.85	226.43
942.15	226.47
942.45	226.52
942.75	226.52
943.04	226.53
943.34	226.57
943.64	226.56
943.94	226.53
944.24	226.53
944.54	226.55
944.84	226.55
945.13	226.51
945.43	226.48
945.73	226.47
946.03	226.46
946.33	226.45
946.62	226.44
946.92	226.44
947.22	226.45
947.52	226.47
947.82	226.49
948.11	226.47
948.41	226.43
948.71	226.38
949.01	226.39
949.31	226.38
949.60	226.36
949.90	226.38
950.20	226.38
950.50	226.38
950.79	226.36
951.09	226.39
951.39	226.39
951.69	226.37
951.98	226.41
952.28	226.41
952.58	226.40
952.87	226.41
953.17	226.43
953.47	226.41
953.76	226.41
954.06	226.38
954.36	226.37
954.66	226.37
954.95	226.42
955.25	226.43
955.55	226.45
955.84	226.42
956.14	226.43
956.44	226.45
956.73	226.42
957.03	226.44
957.32	226.44
957.62	226.44
957.92	226.48
958.21	226.45
958.51	226.66
958.81	226.69
959.10	226.72
959.40	226.75
959.69	226.77
959.99	226.79
960.29	226.80
960.58	226.80
960.88	226.86
961.17	226.84
961.47	226.85
961.76	226.83
962.06	226.87
962.36	226.84
962.65	226.85
962.95	226.87
963.24	226.85
963.54	226.85
963.83	226.86
964.13	226.84
964.42	226.82
964.72	226.67
965.01	226.67
965.31	226.65
965.60	226.60
965.90	226.71
966.19	226.66
966.49	226.68
966.78	226.67
967.08	226.66
967.37	226.66
967.67	226.62
967.96	226.65
968.26	226.64
968.55	226.66
968.85	226.65
969.14	226.65
969.43	226.65
969.73	226.63
970.02	226.62
970.32	226.62
970.61	226.59
970.91	226.54
971.20	226.52
971.49	226.51
971.79	226.53
972.08	226.40
972.38	226.41
972.67	226.40
972.96	226.42
973.26	226.38
973.55	226.44
973.85	226.43
974.14	226.41
974.43	226.43
974.73	226.40
975.02	226.38
975.31	226.38
975.61	226.37
975.90	226.36
976.19	226.35
976.49	226.36
976.78	226.37
977.07	226.37
977.37	226.38
977.66	226.40
977.95	226.37
978.24	226.39
978.54	226.43
978.83	226.41
979.12	226.40
979.42	226.40
979.71	226.35
980.00	226.36
980.29	226.36
980.59	226.33
980.88	226.37
981.17	226.37
981.46	226.37
981.76	226.37
982.05	226.43
982.34	226.44
982.63	226.44
982.93	226.44
983.22	226.48
983.51	226.48
983.80	226.51
984.09	226.53
984.39	226.52
984.68	226.48
984.97	226.50
985.26	226.48
985.55	226.51
985.85	226.47
986.14	226.50
986.43	226.52
986.72	226.51
987.01	226.46
987.30	226.46
987.59	226.45
987.89	226.46
988.18	226.40
988.47	226.38
988.76	226.37
989.05	226.36
989.34	226.33
989.63	226.37
989.92	226.34
990.22	226.31
990.51	226.32
990.80	226.31
991.09	226.32
991.38	226.35
991.67	226.32
991.96	226.31
992.25	226.32
992.54	226.29
992.83	226.29
993.12	226.29
993.41	226.32
993.70	226.40
993.99	226.42
994.28	226.45
994.58	226.49
994.87	226.47
995.16	226.47
995.45	226.46
995.74	226.40
996.03	226.42
996.32	226.45
996.61	226.48
996.90	226.48
997.19	226.47
997.48	226.47
997.77	226.45
998.06	226.47
998.34	226.45
998.63	226.45
998.92	226.45
999.21	226.48
999.50	226.48
999.79	226.41
1000.08	226.41
1000.37	226.40
1000.66	226.37
1000.95	226.42
1001.24	226.42
1001.53	226.45
1001.82	226.45
1002.11	226.41
1002.40	226.42
1002.68	226.46
1002.97	226.58
1003.26	226.57
1003.55	226.54
1003.84	226.55
1004.13	226.61
1004.42	226.60
1004.71	226.60
1004.99	226.59
1005.28	226.63
1005.57	226.62
1005.86	226.60
1006.15	226.59
1006.44	226.56
1006.72	226.59
1007.01	226.56
1007.30	226.56
1007.59	226.54
1007.88	226.54
1008.17	226.55
1008.45	226.51
1008.74	226.43
1009.03	226.35
1009.32	226.35
1009.60	226.36
1009.89	226.35
1010.18	226.27
1010.47	226.26
1010.76	226.26
1011.04	226.26
1011.33	226.24
1011.62	226.26
1011.91	226.27
1012.19	226.28
1012.48	226.28
1012.77	226.27
1013.05	226.34
1013.34	226.34
1013.63	226.33
1013.92	226.34
1014.20	226.33
1014.49	226.34
1014.78	226.36
1015.06	226.30
1015.35	226.31
1015.64	226.33
1015.92	226.36
1016.21	226.38
1016.50	226.38
1016.78	226.40
1017.07	226.42
1017.36	226.38
1017.64	226.36
1017.93	226.38
1018.22	226.36
1018.50	226.36
1018.79	226.35
1019.08	226.29
1019.36	226.30
1019.65	226.28
1019.93	226.33
1020.22	226.36
1020.51	226.45
1020.79	226.44
1021.08	226.10
1021.36	226.02
1021.65	226.39
1021.94	226.22
1022.22	226.49
1022.51	225.95
1022.79	227.17
1023.08	226.64
1023.36	228.50
1023.65	225.95
>>>>>End Processed Spectral Data<<<<<
