SpectraSuite Data File
++++++++++++++++++++++++++++++++++++
Date: Tue Oct 06 12:13:08 EDT 2015
User: lab3
Dark Spectrum Present: No
Reference Spectrum Present: No
Number of Sampled Component Spectra: 1
Spectrometers: USB2E7196
Integration Time (usec): 66000 (USB2E7196)
Spectra Averaged: 400 (USB2E7196)
Boxcar Smoothing: 10 (USB2E7196)
Correct for Electrical Dark: No (USB2E7196)
Strobe/Lamp Enabled: No (USB2E7196)
Correct for Detector Non-linearity: No (USB2E7196)
Correct for Stray Light: No (USB2E7196)
Number of Pixels in Processed Spectrum: 2048
>>>>>Begin Processed Spectral Data<<<<<
339.09	0.00
339.48	216.79
339.86	218.11
340.24	219.73
340.63	220.66
341.01	225.06
341.39	223.65
341.78	225.02
342.16	226.50
342.54	226.55
342.93	215.11
343.31	225.98
343.69	226.51
344.07	226.97
344.46	227.41
344.84	227.83
345.22	228.01
345.60	228.29
345.99	228.50
346.37	228.63
346.75	228.76
347.13	228.85
347.52	228.94
347.90	229.05
348.28	229.10
348.66	229.19
349.05	229.16
349.43	229.24
349.81	229.30
350.19	229.38
350.57	229.47
350.96	229.56
351.34	229.64
351.72	229.76
352.10	229.89
352.48	229.95
352.87	230.00
353.25	230.09
353.63	230.14
354.01	230.20
354.39	230.29
354.77	230.36
355.15	230.48
355.54	230.53
355.92	230.54
356.30	230.61
356.68	230.76
357.06	230.87
357.44	230.90
357.82	230.95
358.20	231.16
358.58	231.22
358.97	231.27
359.35	231.37
359.73	231.46
360.11	231.49
360.49	231.55
360.87	231.61
361.25	231.68
361.63	231.77
362.01	231.83
362.39	231.85
362.77	231.90
363.15	231.92
363.53	231.95
363.91	231.98
364.29	232.00
364.67	231.86
365.05	231.86
365.43	231.90
365.81	231.94
366.19	231.89
366.57	231.95
366.95	231.97
367.33	231.93
367.71	231.92
368.09	231.96
368.47	231.95
368.85	231.93
369.23	231.93
369.61	231.87
369.99	231.89
370.37	231.90
370.75	232.01
371.13	231.97
371.51	231.94
371.89	231.94
372.27	231.92
372.65	231.93
373.03	231.89
373.41	231.85
373.78	231.79
374.16	231.67
374.54	231.58
374.92	231.51
375.30	231.47
375.68	231.40
376.06	231.36
376.44	231.32
376.82	231.29
377.19	231.25
377.57	231.19
377.95	231.10
378.33	231.03
378.71	230.81
379.09	230.77
379.47	230.75
379.84	230.66
380.22	230.59
380.60	230.49
380.98	230.45
381.36	230.39
381.73	230.34
382.11	230.33
382.49	230.30
382.87	230.23
383.25	230.19
383.62	230.35
384.00	230.26
384.38	230.23
384.76	230.23
385.13	230.24
385.51	230.23
385.89	230.19
386.27	230.16
386.64	230.17
387.02	230.12
387.40	230.08
387.78	230.07
388.15	230.07
388.53	230.05
388.91	230.02
389.29	230.00
389.66	230.01
390.04	229.96
390.42	229.97
390.79	229.99
391.17	229.98
391.55	229.76
391.92	229.76
392.30	229.77
392.68	229.74
393.05	229.71
393.43	229.70
393.81	229.72
394.18	229.70
394.56	229.71
394.94	229.76
395.31	229.77
395.69	229.84
396.06	229.89
396.44	229.93
396.82	229.96
397.19	230.08
397.57	230.09
397.95	230.17
398.32	230.16
398.70	230.22
399.07	230.32
399.45	230.38
399.82	230.45
400.20	230.50
400.58	230.58
400.95	230.61
401.33	230.73
401.70	230.95
402.08	231.10
402.45	231.21
402.83	231.38
403.20	231.54
403.58	231.69
403.95	231.87
404.33	232.08
404.71	232.29
405.08	232.57
405.46	232.83
405.83	233.08
406.21	233.39
406.58	233.71
406.96	234.03
407.33	234.40
407.70	234.81
408.08	235.37
408.45	235.86
408.83	236.39
409.20	236.87
409.58	237.31
409.95	237.90
410.33	238.56
410.70	239.18
411.08	239.92
411.45	240.67
411.82	241.48
412.20	242.37
412.57	243.46
412.95	244.33
413.32	245.44
413.69	246.60
414.07	247.82
414.44	249.14
414.82	250.51
415.19	252.10
415.56	253.74
415.94	255.43
416.31	257.32
416.68	259.23
417.06	261.46
417.43	263.53
417.81	265.91
418.18	268.35
418.55	271.00
418.93	273.78
419.30	276.67
419.67	279.72
420.04	282.89
420.42	286.19
420.79	289.98
421.16	293.83
421.54	297.75
421.91	301.81
422.28	306.05
422.66	310.60
423.03	314.97
423.40	319.52
423.77	324.37
424.15	329.38
424.52	334.55
424.89	340.13
425.26	345.68
425.64	350.83
426.01	356.63
426.38	362.58
426.75	368.67
427.13	374.88
427.50	381.39
427.87	388.14
428.24	394.93
428.61	401.44
428.99	408.45
429.36	416.17
429.73	423.58
430.10	430.97
430.47	438.51
430.85	446.33
431.22	454.67
431.59	463.18
431.96	471.49
432.33	480.74
432.70	489.56
433.08	500.05
433.45	509.92
433.82	519.55
434.19	530.39
434.56	541.00
434.93	551.36
435.30	561.61
435.68	573.25
436.05	584.61
436.42	596.00
436.79	606.42
437.16	617.63
437.53	629.70
437.90	641.78
438.27	653.57
438.64	666.22
439.01	677.76
439.38	688.49
439.75	698.76
440.13	710.45
440.50	721.59
440.87	730.40
441.24	740.10
441.61	750.76
441.98	758.58
442.35	767.87
442.72	777.32
443.09	786.45
443.46	792.43
443.83	796.87
444.20	800.51
444.57	805.83
444.94	809.11
445.31	812.32
445.68	815.07
446.05	817.10
446.42	816.79
446.79	816.25
447.16	815.72
447.53	815.37
447.90	811.93
448.27	808.49
448.64	803.21
449.01	799.66
449.37	792.28
449.74	785.60
450.11	776.96
450.48	767.47
450.85	757.82
451.22	749.43
451.59	741.29
451.96	734.06
452.33	723.53
452.70	714.01
453.07	702.58
453.43	691.15
453.80	680.04
454.17	669.43
454.54	659.52
454.91	648.35
455.28	637.75
455.65	627.72
456.02	617.25
456.38	608.81
456.75	597.87
457.12	589.05
457.49	580.17
457.86	571.86
458.23	564.53
458.59	556.41
458.96	548.15
459.33	540.89
459.70	533.43
460.07	527.69
460.43	520.96
460.80	514.68
461.17	509.19
461.54	503.32
461.91	497.81
462.27	492.19
462.64	487.61
463.01	482.36
463.38	477.13
463.74	472.39
464.11	468.20
464.48	464.45
464.85	460.40
465.21	457.26
465.58	453.74
465.95	449.76
466.32	446.58
466.68	443.44
467.05	440.27
467.42	437.23
467.78	433.97
468.15	430.96
468.52	428.74
468.88	425.84
469.25	423.18
469.62	421.07
469.98	418.76
470.35	416.69
470.72	414.87
471.08	412.95
471.45	411.35
471.82	409.57
472.18	407.69
472.55	406.47
472.92	404.96
473.28	403.77
473.65	402.48
474.02	401.33
474.38	400.37
474.75	399.77
475.11	398.89
475.48	398.48
475.85	398.06
476.21	397.82
476.58	397.67
476.94	397.85
477.31	397.89
477.67	398.04
478.04	398.35
478.41	398.73
478.77	399.35
479.14	399.71
479.50	400.48
479.87	401.45
480.23	402.40
480.60	403.35
480.96	404.28
481.33	405.69
481.69	407.07
482.06	408.44
482.42	409.74
482.79	411.33
483.15	413.19
483.52	415.28
483.88	417.33
484.25	419.48
484.61	421.74
484.98	424.14
485.34	426.85
485.71	429.65
486.07	432.66
486.44	435.59
486.80	438.93
487.17	442.32
487.53	446.03
487.90	449.90
488.26	454.15
488.62	458.62
488.99	463.11
489.35	467.83
489.72	472.93
490.08	478.24
490.44	483.69
490.81	489.29
491.17	495.05
491.54	501.18
491.90	507.42
492.26	514.13
492.63	521.15
492.99	528.42
493.36	535.97
493.72	543.91
494.08	552.00
494.45	560.52
494.81	569.41
495.17	578.50
495.54	588.11
495.90	598.07
496.26	608.35
496.63	618.85
496.99	629.69
497.35	640.95
497.72	652.58
498.08	664.63
498.44	677.04
498.80	690.19
499.17	703.62
499.53	717.53
499.89	731.74
500.26	746.11
500.62	760.74
500.98	776.06
501.34	791.58
501.71	807.80
502.07	824.26
502.43	841.18
502.79	858.25
503.16	875.83
503.52	893.60
503.88	911.83
504.24	930.50
504.60	949.42
504.97	968.80
505.33	988.65
505.69	1009.44
506.05	1030.20
506.41	1050.89
506.78	1071.93
507.14	1093.76
507.50	1116.09
507.86	1138.80
508.22	1161.59
508.59	1184.22
508.95	1207.67
509.31	1231.58
509.67	1256.15
510.03	1280.58
510.39	1305.37
510.75	1330.15
511.12	1355.08
511.48	1379.99
511.84	1404.97
512.20	1430.33
512.56	1456.15
512.92	1481.75
513.28	1507.11
513.64	1532.71
514.00	1558.45
514.37	1584.35
514.73	1609.92
515.09	1634.98
515.45	1660.34
515.81	1685.86
516.17	1711.33
516.53	1736.20
516.89	1760.96
517.25	1785.80
517.61	1810.49
517.97	1835.35
518.33	1859.77
518.69	1883.98
519.05	1908.38
519.41	1932.71
519.77	1957.05
520.13	1981.10
520.49	2004.91
520.85	2028.66
521.21	2052.39
521.57	2076.13
521.93	2098.89
522.29	2122.08
522.65	2144.84
523.01	2167.32
523.37	2188.86
523.73	2210.94
524.09	2233.04
524.45	2255.22
524.81	2276.47
525.17	2297.52
525.53	2317.81
525.89	2338.44
526.25	2358.75
526.61	2377.99
526.97	2397.30
527.33	2416.01
527.68	2433.86
528.04	2451.12
528.40	2467.33
528.76	2484.07
529.12	2499.67
529.48	2515.61
529.84	2530.31
530.20	2546.05
530.56	2560.68
530.91	2575.36
531.27	2588.97
531.63	2601.59
531.99	2613.85
532.35	2624.72
532.71	2635.59
533.07	2646.77
533.42	2656.33
533.78	2666.59
534.14	2676.98
534.50	2686.09
534.86	2695.47
535.21	2702.85
535.57	2710.35
535.93	2718.17
536.29	2724.88
536.65	2731.75
537.00	2736.67
537.36	2741.95
537.72	2745.46
538.08	2748.71
538.44	2751.04
538.79	2753.78
539.15	2755.90
539.51	2757.45
539.87	2759.52
540.22	2759.57
540.58	2760.19
540.94	2760.41
541.29	2759.14
541.65	2756.48
542.01	2753.85
542.37	2750.03
542.72	2748.02
543.08	2744.65
543.44	2741.20
543.79	2735.89
544.15	2730.54
544.51	2725.94
544.87	2719.39
545.22	2712.24
545.58	2705.35
545.94	2699.20
546.29	2691.38
546.65	2682.82
547.01	2674.43
547.36	2665.66
547.72	2656.88
548.07	2646.82
548.43	2636.69
548.79	2625.56
549.14	2615.30
549.50	2604.78
549.86	2593.91
550.21	2581.12
550.57	2569.68
550.92	2556.49
551.28	2544.00
551.64	2531.83
551.99	2519.62
552.35	2507.56
552.70	2495.31
553.06	2483.40
553.41	2470.29
553.77	2456.81
554.13	2443.69
554.48	2429.67
554.84	2415.20
555.19	2401.67
555.55	2387.33
555.90	2373.09
556.26	2359.85
556.61	2345.87
556.97	2331.05
557.32	2316.38
557.68	2302.01
558.03	2287.18
558.39	2273.04
558.74	2259.26
559.10	2243.29
559.45	2227.88
559.81	2213.24
560.16	2198.20
560.52	2182.92
560.87	2168.52
561.23	2153.65
561.58	2139.05
561.94	2123.76
562.29	2108.62
562.64	2093.42
563.00	2078.41
563.35	2064.02
563.71	2049.32
564.06	2034.28
564.42	2019.80
564.77	2005.43
565.12	1991.43
565.48	1977.33
565.83	1962.95
566.19	1948.52
566.54	1934.76
566.89	1919.80
567.25	1904.36
567.60	1890.11
567.96	1875.29
568.31	1859.89
568.66	1845.35
569.02	1830.82
569.37	1816.52
569.72	1802.52
570.08	1788.31
570.43	1774.10
570.78	1759.07
571.14	1744.07
571.49	1729.48
571.84	1715.64
572.20	1700.55
572.55	1685.72
572.90	1670.32
573.26	1655.00
573.61	1639.49
573.96	1624.57
574.31	1610.25
574.67	1596.39
575.02	1581.79
575.37	1566.83
575.72	1551.85
576.08	1537.23
576.43	1522.68
576.78	1508.18
577.13	1493.74
577.49	1479.34
577.84	1464.88
578.19	1450.58
578.54	1436.38
578.90	1422.10
579.25	1407.29
579.60	1393.69
579.95	1379.98
580.30	1366.42
580.66	1352.95
581.01	1339.64
581.36	1326.18
581.71	1312.75
582.06	1299.30
582.42	1286.05
582.77	1273.23
583.12	1260.62
583.47	1247.89
583.82	1235.26
584.17	1222.68
584.53	1210.11
584.88	1197.93
585.23	1185.55
585.58	1173.49
585.93	1161.45
586.28	1149.97
586.63	1138.43
586.98	1126.70
587.34	1115.31
587.69	1103.82
588.04	1092.65
588.39	1081.55
588.74	1070.36
589.09	1059.50
589.44	1048.24
589.79	1037.50
590.14	1026.84
590.49	1016.34
590.84	1006.06
591.19	995.92
591.54	985.77
591.89	975.42
592.25	965.10
592.60	954.78
592.95	944.69
593.30	934.69
593.65	924.58
594.00	914.76
594.35	905.61
594.70	895.95
595.05	886.92
595.40	877.77
595.75	868.52
596.10	859.75
596.45	850.81
596.80	842.26
597.15	833.70
597.50	825.19
597.85	816.97
598.19	808.71
598.54	800.46
598.89	792.36
599.24	784.65
599.59	777.04
599.94	769.90
600.29	762.54
600.64	755.23
600.99	747.94
601.34	740.88
601.69	733.24
602.04	726.21
602.39	719.26
602.74	712.51
603.08	705.87
603.43	699.26
603.78	692.76
604.13	686.36
604.48	679.99
604.83	673.84
605.18	667.64
605.53	661.60
605.87	655.42
606.22	649.51
606.57	643.58
606.92	637.55
607.27	631.68
607.62	626.14
607.96	620.69
608.31	615.51
608.66	610.15
609.01	605.09
609.36	600.22
609.70	595.23
610.05	590.20
610.40	585.29
610.75	580.33
611.10	575.69
611.44	571.01
611.79	566.40
612.14	561.77
612.49	557.18
612.83	552.78
613.18	548.62
613.53	544.46
613.88	540.30
614.22	536.38
614.57	532.29
614.92	528.31
615.27	524.40
615.61	520.52
615.96	516.78
616.31	513.01
616.65	509.27
617.00	505.64
617.35	502.12
617.70	498.65
618.04	495.30
618.39	491.91
618.74	488.65
619.08	485.35
619.43	482.13
619.78	479.04
620.12	475.95
620.47	473.01
620.82	470.03
621.16	467.17
621.51	464.41
621.85	461.74
622.20	459.09
622.55	456.45
622.89	453.86
623.24	451.39
623.59	448.97
623.93	446.56
624.28	444.26
624.62	442.16
624.97	440.08
625.32	437.82
625.66	435.54
626.01	433.35
626.35	431.31
626.70	429.23
627.04	427.26
627.39	425.23
627.73	423.21
628.08	421.35
628.43	419.53
628.77	417.68
629.12	415.94
629.46	414.14
629.81	412.48
630.15	410.74
630.50	409.01
630.84	407.36
631.19	405.80
631.53	404.26
631.88	402.53
632.22	400.87
632.57	399.57
632.91	398.24
633.26	396.97
633.60	395.63
633.95	394.37
634.29	393.01
634.64	391.73
634.98	390.33
635.32	389.06
635.67	387.86
636.01	386.67
636.36	385.48
636.70	384.44
637.05	383.27
637.39	382.20
637.73	381.16
638.08	380.14
638.42	379.10
638.77	377.98
639.11	376.85
639.45	375.79
639.80	374.71
640.14	373.65
640.49	372.53
640.83	371.47
641.17	370.42
641.52	369.41
641.86	368.45
642.20	367.65
642.55	366.68
642.89	365.74
643.23	364.78
643.58	363.96
643.92	362.97
644.26	362.04
644.61	361.20
644.95	360.33
645.29	359.42
645.64	358.51
645.98	357.64
646.32	356.87
646.66	356.04
647.01	355.18
647.35	354.42
647.69	353.65
648.04	352.90
648.38	352.14
648.72	351.39
649.06	350.67
649.41	349.91
649.75	349.16
650.09	348.46
650.43	347.76
650.78	347.01
651.12	346.32
651.46	345.63
651.80	344.94
652.14	344.26
652.49	343.63
652.83	342.94
653.17	342.28
653.51	341.64
653.85	341.04
654.20	340.42
654.54	339.71
654.88	339.05
655.22	338.45
655.56	337.73
655.90	337.06
656.25	336.40
656.59	335.76
656.93	335.18
657.27	334.62
657.61	333.97
657.95	333.42
658.29	332.82
658.64	332.34
658.98	331.76
659.32	331.18
659.66	330.60
660.00	330.05
660.34	329.50
660.68	328.94
661.02	328.34
661.36	327.76
661.70	327.22
662.05	326.69
662.39	326.17
662.73	325.74
663.07	325.34
663.41	324.86
663.75	324.32
664.09	323.79
664.43	323.19
664.77	322.70
665.11	322.09
665.45	321.55
665.79	320.98
666.13	320.42
666.47	319.88
666.81	319.32
667.15	318.73
667.49	318.24
667.83	317.80
668.17	317.33
668.51	316.88
668.85	316.44
669.19	316.07
669.53	315.56
669.87	315.04
670.21	314.53
670.55	314.06
670.89	313.71
671.23	313.26
671.57	312.83
671.91	312.42
672.25	312.04
672.58	311.67
672.92	311.22
673.26	310.82
673.60	310.39
673.94	310.01
674.28	309.66
674.62	309.28
674.96	308.81
675.30	308.42
675.64	307.96
675.97	307.51
676.31	307.01
676.65	306.57
676.99	306.24
677.33	305.78
677.67	305.33
678.01	304.78
678.34	304.35
678.68	303.94
679.02	303.45
679.36	303.01
679.70	302.55
680.04	302.09
680.37	301.67
680.71	301.26
681.05	300.85
681.39	300.39
681.73	299.89
682.06	299.43
682.40	298.99
682.74	298.60
683.08	298.23
683.42	297.76
683.75	297.35
684.09	296.80
684.43	296.33
684.77	295.86
685.10	295.47
685.44	295.07
685.78	294.64
686.12	294.26
686.45	293.82
686.79	293.34
687.13	292.94
687.46	292.48
687.80	292.03
688.14	291.54
688.48	291.13
688.81	290.71
689.15	290.34
689.49	289.88
689.82	289.41
690.16	288.89
690.50	288.49
690.83	288.02
691.17	287.56
691.51	287.17
691.84	286.81
692.18	286.35
692.52	285.88
692.85	285.44
693.19	285.05
693.52	284.65
693.86	284.26
694.20	283.83
694.53	283.42
694.87	282.97
695.21	282.54
695.54	282.10
695.88	281.66
696.21	281.16
696.55	280.73
696.88	280.32
697.22	279.90
697.56	279.49
697.89	279.06
698.23	278.67
698.56	278.22
698.90	277.80
699.23	277.37
699.57	276.97
699.90	276.56
700.24	276.10
700.58	275.69
700.91	275.32
701.25	275.08
701.58	274.78
701.92	274.45
702.25	274.11
702.59	273.71
702.92	273.32
703.26	272.96
703.59	272.57
703.93	272.32
704.26	271.97
704.60	271.56
704.93	271.17
705.26	270.77
705.60	270.44
705.93	270.00
706.27	269.68
706.60	269.34
706.94	269.04
707.27	268.65
707.61	268.26
707.94	267.87
708.27	267.33
708.61	266.85
708.94	266.45
709.28	266.07
709.61	265.70
709.94	265.39
710.28	265.07
710.61	264.78
710.95	264.31
711.28	264.09
711.61	263.77
711.95	263.49
712.28	263.15
712.61	262.80
712.95	262.59
713.28	262.32
713.61	261.99
713.95	261.60
714.28	261.30
714.61	260.98
714.95	260.68
715.28	260.38
715.61	260.10
715.95	259.84
716.28	259.55
716.61	259.28
716.95	258.94
717.28	258.63
717.61	258.31
717.94	258.02
718.28	257.63
718.61	257.34
718.94	257.03
719.27	256.77
719.61	256.53
719.94	256.23
720.27	255.88
720.60	255.61
720.94	255.36
721.27	255.10
721.60	254.89
721.93	254.61
722.27	254.41
722.60	254.19
722.93	253.91
723.26	253.67
723.59	253.41
723.93	253.20
724.26	252.99
724.59	252.76
724.92	252.56
725.25	252.38
725.59	252.18
725.92	251.98
726.25	251.76
726.58	251.53
726.91	251.29
727.24	251.10
727.57	250.88
727.91	250.64
728.24	250.47
728.57	250.24
728.90	250.07
729.23	249.82
729.56	249.71
729.89	249.51
730.22	249.31
730.55	249.12
730.89	248.92
731.22	248.70
731.55	248.50
731.88	248.30
732.21	248.07
732.54	247.87
732.87	247.69
733.20	247.52
733.53	247.35
733.86	247.20
734.19	247.01
734.52	246.88
734.85	246.84
735.18	246.64
735.51	246.50
735.84	246.34
736.17	246.23
736.50	245.95
736.83	246.00
737.16	245.84
737.49	245.69
737.82	245.51
738.15	245.37
738.48	245.22
738.81	245.05
739.14	244.88
739.47	244.72
739.80	244.55
740.13	244.41
740.46	244.23
740.79	244.05
741.12	243.89
741.45	243.71
741.78	243.45
742.11	243.35
742.44	243.17
742.77	243.04
743.10	242.87
743.43	242.74
743.75	242.40
744.08	242.52
744.41	242.36
744.74	242.22
745.07	242.07
745.40	241.96
745.73	241.91
746.06	241.77
746.39	241.66
746.71	241.52
747.04	241.36
747.37	241.23
747.70	241.14
748.03	241.02
748.36	240.93
748.68	240.81
749.01	240.64
749.34	240.53
749.67	240.43
750.00	240.34
750.33	240.35
750.65	240.25
750.98	239.90
751.31	239.79
751.64	239.71
751.97	239.68
752.29	239.55
752.62	239.36
752.95	239.26
753.28	239.12
753.60	239.00
753.93	238.94
754.26	238.84
754.59	238.67
754.91	238.54
755.24	238.42
755.57	238.40
755.90	238.30
756.22	238.17
756.55	238.01
756.88	237.87
757.20	237.65
757.53	237.49
757.86	237.37
758.19	237.28
758.51	237.18
758.84	237.00
759.17	236.90
759.49	236.78
759.82	236.79
760.15	236.73
760.47	236.65
760.80	236.53
761.13	236.45
761.45	236.39
761.78	236.31
762.11	236.23
762.43	236.04
762.76	235.96
763.08	235.92
763.41	235.85
763.74	235.78
764.06	235.68
764.39	235.63
764.71	235.56
765.04	235.47
765.37	235.38
765.69	235.30
766.02	235.23
766.34	235.18
766.67	235.02
767.00	234.97
767.32	235.01
767.65	235.06
767.97	234.98
768.30	234.94
768.62	234.88
768.95	234.79
769.27	234.74
769.60	234.71
769.92	234.61
770.25	234.52
770.57	234.43
770.90	234.40
771.22	234.33
771.55	234.30
771.87	234.24
772.20	234.19
772.52	234.29
772.85	234.45
773.17	234.39
773.50	234.36
773.82	234.28
774.15	234.13
774.47	233.97
774.80	233.92
775.12	233.86
775.45	233.81
775.77	233.79
776.09	233.74
776.42	233.69
776.74	233.71
777.07	233.68
777.39	233.65
777.72	233.59
778.04	233.57
778.36	233.50
778.69	233.45
779.01	233.43
779.33	233.23
779.66	232.99
779.98	232.93
780.31	232.89
780.63	232.91
780.95	232.91
781.28	232.85
781.60	232.79
781.92	232.77
782.25	232.72
782.57	232.68
782.89	232.65
783.22	232.61
783.54	232.56
783.86	232.54
784.19	232.50
784.51	232.51
784.83	232.46
785.16	232.44
785.48	232.44
785.80	232.39
786.12	232.39
786.45	232.36
786.77	232.35
787.09	232.32
787.42	232.24
787.74	232.22
788.06	232.20
788.38	232.17
788.71	232.12
789.03	232.11
789.35	232.11
789.67	232.05
789.99	232.03
790.32	231.95
790.64	231.95
790.96	232.10
791.28	232.02
791.61	231.99
791.93	231.97
792.25	231.92
792.57	232.03
792.89	231.97
793.21	231.96
793.54	231.93
793.86	231.89
794.18	231.88
794.50	231.82
794.82	231.81
795.14	231.82
795.47	231.83
795.79	231.80
796.11	231.72
796.43	231.70
796.75	231.68
797.07	231.66
797.39	231.62
797.71	231.43
798.04	231.44
798.36	231.44
798.68	231.42
799.00	231.41
799.32	231.31
799.64	231.33
799.96	231.31
800.28	231.32
800.60	231.30
800.92	231.27
801.24	231.26
801.56	231.25
801.89	231.20
802.21	231.19
802.53	231.13
802.85	231.18
803.17	231.25
803.49	231.19
803.81	231.17
804.13	231.15
804.45	231.13
804.77	231.11
805.09	231.09
805.41	231.06
805.73	231.02
806.05	230.93
806.37	230.90
806.69	230.87
807.01	230.82
807.33	230.80
807.65	230.74
807.97	230.80
808.28	230.76
808.60	230.75
808.92	230.69
809.24	230.81
809.56	230.75
809.88	230.67
810.20	230.69
810.52	230.73
810.84	230.70
811.16	230.66
811.48	230.63
811.80	230.68
812.12	230.66
812.43	230.69
812.75	230.70
813.07	230.67
813.39	230.66
813.71	230.62
814.03	230.61
814.35	230.60
814.67	230.52
814.98	230.50
815.30	230.48
815.62	230.46
815.94	230.32
816.26	230.33
816.58	230.28
816.89	230.27
817.21	230.20
817.53	230.19
817.85	230.19
818.17	230.18
818.48	230.09
818.80	230.11
819.12	230.06
819.44	230.01
819.76	229.98
820.07	229.97
820.39	229.95
820.71	229.96
821.03	229.94
821.34	229.91
821.66	229.91
821.98	229.91
822.30	229.90
822.61	229.99
822.93	229.94
823.25	229.94
823.57	229.92
823.88	229.94
824.20	229.92
824.52	229.95
824.83	229.93
825.15	229.89
825.47	229.88
825.79	229.91
826.10	229.89
826.42	229.89
826.74	229.88
827.05	229.87
827.37	229.85
827.69	229.83
828.00	229.83
828.32	229.83
828.64	229.81
828.95	229.89
829.27	229.84
829.58	229.83
829.90	229.86
830.22	229.86
830.53	229.81
830.85	229.78
831.17	229.72
831.48	229.73
831.80	229.74
832.11	229.70
832.43	229.65
832.75	229.65
833.06	229.74
833.38	229.69
833.69	229.68
834.01	229.69
834.32	229.68
834.64	229.67
834.96	229.66
835.27	229.64
835.59	229.58
835.90	229.54
836.22	229.53
836.53	229.48
836.85	229.45
837.16	229.63
837.48	229.61
837.79	229.67
838.11	229.65
838.42	229.65
838.74	229.67
839.05	229.66
839.37	229.64
839.68	229.54
840.00	229.53
840.31	229.54
840.63	229.53
840.94	229.50
841.26	229.48
841.57	229.46
841.88	229.49
842.20	229.45
842.51	229.42
842.83	229.42
843.14	229.57
843.46	229.55
843.77	229.44
844.08	229.47
844.40	229.40
844.71	229.38
845.03	229.38
845.34	229.35
845.65	229.35
845.97	229.37
846.28	229.37
846.60	229.39
846.91	229.37
847.22	229.36
847.54	229.40
847.85	229.42
848.16	229.41
848.48	229.38
848.79	229.45
849.10	229.48
849.42	229.49
849.73	229.34
850.04	229.35
850.36	229.29
850.67	229.31
850.98	229.32
851.30	229.35
851.61	229.33
851.92	229.33
852.23	229.37
852.55	229.38
852.86	229.38
853.17	229.38
853.49	229.42
853.80	229.46
854.11	229.48
854.42	229.49
854.74	229.46
855.05	229.48
855.36	229.37
855.67	229.37
855.99	229.37
856.30	229.58
856.61	229.57
856.92	229.58
857.23	229.58
857.55	229.54
857.86	229.52
858.17	229.55
858.48	229.52
858.79	229.48
859.11	229.50
859.42	229.47
859.73	229.45
860.04	229.43
860.35	229.37
860.66	229.31
860.98	229.30
861.29	229.33
861.60	229.31
861.91	229.37
862.22	229.35
862.53	229.30
862.84	229.09
863.16	229.14
863.47	229.10
863.78	229.09
864.09	229.11
864.40	229.12
864.71	229.12
865.02	229.14
865.33	229.13
865.64	229.09
865.95	229.11
866.27	229.22
866.58	229.21
866.89	229.22
867.20	229.22
867.51	229.18
867.82	229.16
868.13	229.20
868.44	229.14
868.75	229.16
869.06	229.18
869.37	229.19
869.68	229.14
869.99	229.18
870.30	229.18
870.61	229.19
870.92	229.16
871.23	229.16
871.54	229.16
871.85	229.20
872.16	229.23
872.47	229.21
872.78	229.11
873.09	229.10
873.40	229.09
873.71	229.12
874.02	229.14
874.33	229.14
874.64	229.10
874.95	229.13
875.26	229.09
875.56	229.08
875.87	229.06
876.18	229.05
876.49	229.21
876.80	229.21
877.11	229.17
877.42	229.18
877.73	229.16
878.04	229.15
878.35	229.14
878.66	229.15
878.96	229.14
879.27	229.13
879.58	229.14
879.89	229.13
880.20	229.18
880.51	229.17
880.82	229.15
881.12	229.16
881.43	229.14
881.74	229.14
882.05	229.14
882.36	229.17
882.67	229.17
882.97	228.98
883.28	228.94
883.59	228.94
883.90	228.95
884.21	228.96
884.51	228.95
884.82	228.93
885.13	228.90
885.44	228.90
885.74	228.89
886.05	228.88
886.36	228.88
886.67	228.81
886.98	228.90
887.28	228.92
887.59	228.91
887.90	228.91
888.20	228.89
888.51	228.92
888.82	228.88
889.13	228.91
889.43	229.07
889.74	229.07
890.05	229.07
890.35	229.06
890.66	229.04
890.97	229.02
891.28	229.01
891.58	229.01
891.89	229.02
892.20	229.01
892.50	228.99
892.81	228.99
893.12	228.98
893.42	228.90
893.73	228.91
894.04	228.92
894.34	228.93
894.65	228.93
894.95	228.92
895.26	228.92
895.57	229.00
895.87	228.83
896.18	228.86
896.48	228.87
896.79	228.87
897.10	228.91
897.40	228.92
897.71	228.94
898.01	228.93
898.32	228.94
898.63	228.94
898.93	228.95
899.24	228.95
899.54	228.97
899.85	228.95
900.15	228.91
900.46	228.91
900.76	228.93
901.07	228.93
901.38	228.92
901.68	228.95
901.99	228.86
902.29	228.88
902.60	228.88
902.90	228.86
903.21	228.87
903.51	228.83
903.82	228.88
904.12	228.89
904.43	228.89
904.73	228.89
905.03	228.90
905.34	229.06
905.64	229.04
905.95	229.04
906.25	229.05
906.56	229.06
906.86	229.06
907.17	229.03
907.47	229.06
907.77	229.05
908.08	229.00
908.38	228.99
908.69	229.00
908.99	229.04
909.30	229.04
909.60	229.04
909.90	229.05
910.21	228.98
910.51	228.95
910.81	228.95
911.12	228.97
911.42	228.97
911.73	228.81
912.03	228.83
912.33	228.85
912.64	228.84
912.94	228.83
913.24	228.80
913.55	228.79
913.85	228.77
914.15	228.80
914.46	228.85
914.76	228.82
915.06	228.82
915.37	228.76
915.67	228.77
915.97	228.75
916.27	228.73
916.58	228.76
916.88	228.75
917.18	228.74
917.49	228.86
917.79	228.86
918.09	228.87
918.39	228.91
918.70	228.92
919.00	228.93
919.30	229.00
919.60	229.01
919.91	228.99
920.21	229.00
920.51	228.95
920.81	228.92
921.12	228.95
921.42	228.94
921.72	228.96
922.02	228.96
922.32	228.97
922.63	228.98
922.93	229.07
923.23	229.09
923.53	229.08
923.83	228.94
924.13	228.94
924.44	228.94
924.74	228.96
925.04	228.98
925.34	228.99
925.64	228.92
925.94	228.91
926.24	229.01
926.55	229.00
926.85	229.04
927.15	229.04
927.45	229.04
927.75	229.06
928.05	229.05
928.35	229.05
928.65	229.07
928.95	229.09
929.26	228.99
929.56	229.01
929.86	229.03
930.16	229.02
930.46	229.01
930.76	229.02
931.06	228.94
931.36	228.89
931.66	228.91
931.96	228.94
932.26	228.94
932.56	228.86
932.86	228.86
933.16	228.86
933.46	228.85
933.76	228.82
934.06	228.83
934.36	228.90
934.66	228.89
934.96	228.85
935.26	228.84
935.56	228.87
935.86	228.82
936.16	228.78
936.46	228.77
936.76	228.75
937.06	228.72
937.36	228.74
937.66	228.73
937.96	228.72
938.26	228.68
938.56	228.68
938.86	228.67
939.16	228.72
939.46	228.73
939.76	228.73
940.06	228.74
940.35	228.68
940.65	228.57
940.95	228.61
941.25	228.60
941.55	228.58
941.85	228.57
942.15	228.63
942.45	228.68
942.75	228.68
943.04	228.68
943.34	228.70
943.64	228.67
943.94	228.65
944.24	228.64
944.54	228.65
944.84	228.64
945.13	228.63
945.43	228.58
945.73	228.57
946.03	228.56
946.33	228.55
946.62	228.55
946.92	228.56
947.22	228.56
947.52	228.57
947.82	228.59
948.11	228.57
948.41	228.51
948.71	228.45
949.01	228.45
949.31	228.45
949.60	228.45
949.90	228.49
950.20	228.48
950.50	228.47
950.79	228.46
951.09	228.48
951.39	228.47
951.69	228.46
951.98	228.48
952.28	228.48
952.58	228.48
952.87	228.49
953.17	228.51
953.47	228.48
953.76	228.46
954.06	228.43
954.36	228.39
954.66	228.41
954.95	228.47
955.25	228.48
955.55	228.50
955.84	228.48
956.14	228.47
956.44	228.49
956.73	228.47
957.03	228.49
957.32	228.47
957.62	228.46
957.92	228.50
958.21	228.47
958.51	228.68
958.81	228.71
959.10	228.73
959.40	228.75
959.69	228.76
959.99	228.79
960.29	228.79
960.58	228.79
960.88	228.86
961.17	228.82
961.47	228.85
961.76	228.84
962.06	228.87
962.36	228.85
962.65	228.86
962.95	228.87
963.24	228.86
963.54	228.87
963.83	228.91
964.13	228.89
964.42	228.88
964.72	228.74
965.01	228.74
965.31	228.73
965.60	228.70
965.90	228.81
966.19	228.77
966.49	228.80
966.78	228.81
967.08	228.77
967.37	228.80
967.67	228.77
967.96	228.78
968.26	228.77
968.55	228.81
968.85	228.79
969.14	228.79
969.43	228.79
969.73	228.78
970.02	228.75
970.32	228.74
970.61	228.72
970.91	228.66
971.20	228.62
971.49	228.61
971.79	228.63
972.08	228.51
972.38	228.52
972.67	228.50
972.96	228.52
973.26	228.49
973.55	228.53
973.85	228.52
974.14	228.52
974.43	228.53
974.73	228.49
975.02	228.48
975.31	228.47
975.61	228.47
975.90	228.46
976.19	228.45
976.49	228.46
976.78	228.47
977.07	228.47
977.37	228.50
977.66	228.50
977.95	228.48
978.24	228.48
978.54	228.53
978.83	228.54
979.12	228.51
979.42	228.50
979.71	228.45
980.00	228.45
980.29	228.45
980.59	228.41
980.88	228.47
981.17	228.45
981.46	228.47
981.76	228.47
982.05	228.53
982.34	228.54
982.63	228.54
982.93	228.52
983.22	228.57
983.51	228.58
983.80	228.62
984.09	228.63
984.39	228.61
984.68	228.57
984.97	228.56
985.26	228.57
985.55	228.60
985.85	228.58
986.14	228.61
986.43	228.63
986.72	228.61
987.01	228.55
987.30	228.55
987.59	228.54
987.89	228.55
988.18	228.48
988.47	228.47
988.76	228.46
989.05	228.47
989.34	228.44
989.63	228.46
989.92	228.43
990.22	228.41
990.51	228.41
990.80	228.41
991.09	228.41
991.38	228.43
991.67	228.41
991.96	228.40
992.25	228.41
992.54	228.37
992.83	228.38
993.12	228.39
993.41	228.43
993.70	228.49
993.99	228.53
994.28	228.56
994.58	228.59
994.87	228.57
995.16	228.56
995.45	228.54
995.74	228.49
996.03	228.51
996.32	228.55
996.61	228.59
996.90	228.57
997.19	228.57
997.48	228.56
997.77	228.54
998.06	228.55
998.34	228.53
998.63	228.55
998.92	228.55
999.21	228.57
999.50	228.57
999.79	228.52
1000.08	228.52
1000.37	228.53
1000.66	228.50
1000.95	228.56
1001.24	228.57
1001.53	228.61
1001.82	228.60
1002.11	228.56
1002.40	228.58
1002.68	228.63
1002.97	228.76
1003.26	228.75
1003.55	228.73
1003.84	228.75
1004.13	228.80
1004.42	228.79
1004.71	228.79
1004.99	228.78
1005.28	228.82
1005.57	228.79
1005.86	228.77
1006.15	228.73
1006.44	228.71
1006.72	228.73
1007.01	228.69
1007.30	228.71
1007.59	228.67
1007.88	228.69
1008.17	228.69
1008.45	228.65
1008.74	228.56
1009.03	228.48
1009.32	228.48
1009.60	228.48
1009.89	228.45
1010.18	228.38
1010.47	228.38
1010.76	228.37
1011.04	228.37
1011.33	228.36
1011.62	228.38
1011.91	228.40
1012.19	228.42
1012.48	228.42
1012.77	228.41
1013.05	228.47
1013.34	228.45
1013.63	228.44
1013.92	228.43
1014.20	228.43
1014.49	228.45
1014.78	228.46
1015.06	228.40
1015.35	228.40
1015.64	228.43
1015.92	228.45
1016.21	228.47
1016.50	228.46
1016.78	228.48
1017.07	228.49
1017.36	228.47
1017.64	228.44
1017.93	228.43
1018.22	228.41
1018.50	228.39
1018.79	228.39
1019.08	228.33
1019.36	228.34
1019.65	228.33
1019.93	228.37
1020.22	228.40
1020.51	228.50
1020.79	228.48
1021.08	228.21
1021.36	227.95
1021.65	228.67
1021.94	228.46
1022.22	228.22
1022.51	228.14
1022.79	229.16
1023.08	228.78
1023.36	230.70
1023.65	227.96
>>>>>End Processed Spectral Data<<<<<
