SpectraSuite Data File
++++++++++++++++++++++++++++++++++++
Date: Tue Oct 06 14:36:25 EDT 2015
User: lab3
Dark Spectrum Present: No
Reference Spectrum Present: No
Number of Sampled Component Spectra: 1
Spectrometers: USB2E7196
Integration Time (usec): 66000 (USB2E7196)
Spectra Averaged: 1000 (USB2E7196)
Boxcar Smoothing: 10 (USB2E7196)
Correct for Electrical Dark: No (USB2E7196)
Strobe/Lamp Enabled: No (USB2E7196)
Correct for Detector Non-linearity: No (USB2E7196)
Correct for Stray Light: No (USB2E7196)
Number of Pixels in Processed Spectrum: 2048
>>>>>Begin Processed Spectral Data<<<<<
339.09	0.00
339.48	214.75
339.86	216.39
340.24	217.79
340.63	219.15
341.01	223.16
341.39	221.78
341.78	223.39
342.16	224.59
342.54	224.67
342.93	213.36
343.31	224.13
343.69	224.68
344.07	225.13
344.46	225.58
344.84	225.97
345.22	226.16
345.60	226.44
345.99	226.63
346.37	226.78
346.75	226.90
347.13	226.99
347.52	227.07
347.90	227.18
348.28	227.23
348.66	227.32
349.05	227.32
349.43	227.39
349.81	227.47
350.19	227.53
350.57	227.60
350.96	227.71
351.34	227.82
351.72	227.92
352.10	228.04
352.48	228.10
352.87	228.16
353.25	228.24
353.63	228.29
354.01	228.36
354.39	228.44
354.77	228.53
355.15	228.66
355.54	228.70
355.92	228.71
356.30	228.78
356.68	228.97
357.06	229.05
357.44	229.09
357.82	229.15
358.20	229.37
358.58	229.43
358.97	229.49
359.35	229.59
359.73	229.68
360.11	229.74
360.49	229.80
360.87	229.85
361.25	229.93
361.63	230.04
362.01	230.10
362.39	230.12
362.77	230.17
363.15	230.19
363.53	230.23
363.91	230.28
364.29	230.31
364.67	230.16
365.05	230.19
365.43	230.23
365.81	230.27
366.19	230.22
366.57	230.30
366.95	230.29
367.33	230.26
367.71	230.26
368.09	230.29
368.47	230.29
368.85	230.28
369.23	230.31
369.61	230.23
369.99	230.28
370.37	230.28
370.75	230.40
371.13	230.36
371.51	230.31
371.89	230.29
372.27	230.27
372.65	230.26
373.03	230.21
373.41	230.17
373.78	230.12
374.16	229.98
374.54	229.88
374.92	229.83
375.30	229.79
375.68	229.71
376.06	229.66
376.44	229.60
376.82	229.56
377.19	229.50
377.57	229.45
377.95	229.34
378.33	229.28
378.71	229.08
379.09	229.04
379.47	229.04
379.84	228.97
380.22	228.90
380.60	228.82
380.98	228.76
381.36	228.71
381.73	228.64
382.11	228.64
382.49	228.59
382.87	228.53
383.25	228.50
383.62	228.68
384.00	228.60
384.38	228.56
384.76	228.58
385.13	228.60
385.51	228.56
385.89	228.49
386.27	228.47
386.64	228.45
387.02	228.39
387.40	228.34
387.78	228.32
388.15	228.31
388.53	228.28
388.91	228.26
389.29	228.22
389.66	228.24
390.04	228.19
390.42	228.20
390.79	228.20
391.17	228.18
391.55	227.96
391.92	227.96
392.30	227.98
392.68	227.93
393.05	227.91
393.43	227.92
393.81	227.94
394.18	227.92
394.56	227.94
394.94	228.00
395.31	227.99
395.69	228.07
396.06	228.11
396.44	228.15
396.82	228.17
397.19	228.31
397.57	228.33
397.95	228.40
398.32	228.39
398.70	228.46
399.07	228.57
399.45	228.63
399.82	228.70
400.20	228.75
400.58	228.84
400.95	228.86
401.33	228.99
401.70	229.22
402.08	229.36
402.45	229.50
402.83	229.67
403.20	229.84
403.58	229.98
403.95	230.20
404.33	230.43
404.71	230.64
405.08	230.94
405.46	231.20
405.83	231.47
406.21	231.77
406.58	232.10
406.96	232.41
407.33	232.79
407.70	233.21
408.08	233.79
408.45	234.30
408.83	234.85
409.20	235.35
409.58	235.82
409.95	236.44
410.33	237.12
410.70	237.78
411.08	238.53
411.45	239.34
411.82	240.15
412.20	241.09
412.57	242.20
412.95	243.09
413.32	244.23
413.69	245.41
414.07	246.67
414.44	248.05
414.82	249.45
415.19	251.09
415.56	252.76
415.94	254.48
416.31	256.43
416.68	258.38
417.06	260.64
417.43	262.75
417.81	265.18
418.18	267.65
418.55	270.36
418.93	273.20
419.30	276.13
419.67	279.27
420.04	282.48
420.42	285.87
420.79	289.75
421.16	293.68
421.54	297.65
421.91	301.81
422.28	306.11
422.66	310.77
423.03	315.18
423.40	319.83
423.77	324.78
424.15	329.85
424.52	335.10
424.89	340.78
425.26	346.42
425.64	351.67
426.01	357.55
426.38	363.57
426.75	369.74
427.13	376.02
427.50	382.61
427.87	389.44
428.24	396.29
428.61	402.86
428.99	409.94
429.36	417.75
429.73	425.22
430.10	432.66
430.47	440.27
430.85	448.16
431.22	456.54
431.59	465.14
431.96	473.51
432.33	482.85
432.70	491.73
433.08	502.28
433.45	512.23
433.82	521.99
434.19	532.88
434.56	543.62
434.93	554.05
435.30	564.42
435.68	576.21
436.05	587.71
436.42	599.25
436.79	609.79
437.16	621.16
437.53	633.39
437.90	645.64
438.27	657.59
438.64	670.45
439.01	682.19
439.38	693.06
439.75	703.52
440.13	715.41
440.50	726.74
440.87	735.77
441.24	745.67
441.61	756.59
441.98	764.65
442.35	774.17
442.72	783.90
443.09	793.24
443.46	799.40
443.83	804.05
444.20	807.83
444.57	813.40
444.94	816.84
445.31	820.26
445.68	823.20
446.05	825.44
446.42	825.28
446.79	824.91
447.16	824.55
447.53	824.38
447.90	821.08
448.27	817.83
448.64	812.66
449.01	809.24
449.37	801.87
449.74	795.28
450.11	786.69
450.48	777.20
450.85	767.59
451.22	759.27
451.59	751.16
451.96	743.97
452.33	733.37
452.70	723.86
453.07	712.35
453.43	700.89
453.80	689.72
454.17	679.02
454.54	669.03
454.91	657.76
455.28	647.03
455.65	636.84
456.02	626.18
456.38	617.56
456.75	606.44
457.12	597.46
457.49	588.37
457.86	579.84
458.23	572.34
458.59	564.03
458.96	555.51
459.33	548.03
459.70	540.39
460.07	534.45
460.43	527.52
460.80	521.04
461.17	515.33
461.54	509.27
461.91	503.58
462.27	497.79
462.64	493.05
463.01	487.66
463.38	482.30
463.74	477.42
464.11	473.14
464.48	469.27
464.85	465.08
465.21	461.81
465.58	458.19
465.95	454.09
466.32	450.79
466.68	447.56
467.05	444.31
467.42	441.15
467.78	437.81
468.15	434.73
468.52	432.46
468.88	429.48
469.25	426.74
469.62	424.55
469.98	422.17
470.35	420.04
470.72	418.13
471.08	416.15
471.45	414.48
471.82	412.61
472.18	410.67
472.55	409.42
472.92	407.88
473.28	406.68
473.65	405.34
474.02	404.14
474.38	403.12
474.75	402.49
475.11	401.59
475.48	401.14
475.85	400.69
476.21	400.43
476.58	400.25
476.94	400.41
477.31	400.43
477.67	400.54
478.04	400.81
478.41	401.19
478.77	401.79
479.14	402.12
479.50	402.87
479.87	403.84
480.23	404.80
480.60	405.73
480.96	406.65
481.33	408.07
481.69	409.46
482.06	410.83
482.42	412.13
482.79	413.69
483.15	415.56
483.52	417.66
483.88	419.70
484.25	421.86
484.61	424.09
484.98	426.47
485.34	429.18
485.71	431.98
486.07	434.99
486.44	437.91
486.80	441.25
487.17	444.62
487.53	448.33
487.90	452.17
488.26	456.39
488.62	460.84
488.99	465.28
489.35	469.98
489.72	475.06
490.08	480.36
490.44	485.78
490.81	491.36
491.17	497.08
491.54	503.17
491.90	509.41
492.26	516.09
492.63	523.10
492.99	530.38
493.36	537.90
493.72	545.83
494.08	553.93
494.45	562.44
494.81	571.34
495.17	580.43
495.54	590.04
495.90	600.04
496.26	610.33
496.63	620.84
496.99	631.70
497.35	642.96
497.72	654.62
498.08	666.71
498.44	679.05
498.80	692.18
499.17	705.65
499.53	719.56
499.89	733.83
500.26	748.18
500.62	762.79
500.98	778.15
501.34	793.70
501.71	809.92
502.07	826.43
502.43	843.39
502.79	860.53
503.16	878.09
503.52	895.92
503.88	914.19
504.24	932.96
504.60	951.92
504.97	971.34
505.33	991.22
505.69	1012.07
506.05	1033.01
506.41	1053.81
506.78	1074.89
507.14	1096.78
507.50	1119.15
507.86	1141.98
508.22	1164.96
508.59	1187.74
508.95	1211.30
509.31	1235.31
509.67	1260.02
510.03	1284.63
510.39	1309.61
510.75	1334.65
511.12	1359.76
511.48	1384.83
511.84	1409.94
512.20	1435.49
512.56	1461.54
512.92	1487.34
513.28	1512.82
513.64	1538.67
514.00	1564.63
514.37	1590.83
514.73	1616.69
515.09	1642.11
515.45	1667.78
515.81	1693.53
516.17	1719.31
516.53	1744.47
516.89	1769.55
517.25	1794.67
517.61	1819.55
517.97	1844.60
518.33	1869.29
518.69	1893.90
519.05	1918.66
519.41	1943.34
519.77	1967.97
520.13	1992.25
520.49	2016.45
520.85	2040.63
521.21	2064.64
521.57	2088.91
521.93	2111.99
522.29	2135.63
522.65	2158.80
523.01	2181.70
523.37	2203.77
523.73	2226.30
524.09	2248.86
524.45	2271.50
524.81	2293.39
525.17	2315.02
525.53	2335.98
525.89	2357.19
526.25	2378.04
526.61	2397.81
526.97	2417.65
527.33	2437.16
527.68	2455.88
528.04	2473.89
528.40	2490.92
528.76	2508.47
529.12	2524.76
529.48	2541.54
529.84	2557.01
530.20	2573.61
530.56	2589.16
530.91	2604.63
531.27	2619.04
531.63	2632.45
531.99	2645.56
532.35	2657.12
532.71	2668.75
533.07	2680.72
533.42	2691.04
533.78	2702.06
534.14	2713.43
534.50	2723.49
534.86	2733.58
535.21	2741.71
535.57	2749.84
535.93	2758.40
536.29	2765.72
536.65	2773.43
537.00	2778.96
537.36	2784.77
537.72	2788.81
538.08	2792.55
538.44	2795.36
538.79	2798.55
539.15	2801.28
539.51	2803.36
539.87	2806.04
540.22	2806.72
540.58	2807.72
540.94	2808.48
541.29	2807.68
541.65	2805.40
542.01	2803.16
542.37	2799.89
542.72	2798.24
543.08	2795.44
543.44	2792.51
543.79	2787.80
544.15	2782.82
544.51	2778.85
544.87	2772.86
545.22	2766.32
545.58	2759.87
545.94	2754.23
546.29	2747.04
546.65	2739.07
547.01	2731.20
547.36	2722.99
547.72	2714.71
548.07	2705.23
548.43	2695.53
548.79	2684.76
549.14	2674.94
549.50	2665.02
549.86	2654.45
550.21	2642.06
550.57	2630.97
550.92	2617.98
551.28	2605.57
551.64	2593.53
551.99	2581.56
552.35	2569.72
552.70	2557.66
553.06	2546.04
553.41	2533.30
553.77	2520.04
554.13	2507.06
554.48	2493.31
554.84	2478.92
555.19	2465.43
555.55	2451.29
555.90	2437.33
556.26	2424.37
556.61	2410.63
556.97	2395.85
557.32	2381.39
557.68	2367.35
558.03	2352.54
558.39	2338.67
558.74	2325.21
559.10	2309.45
559.45	2294.02
559.81	2279.52
560.16	2264.61
560.52	2249.36
560.87	2234.87
561.23	2220.00
561.58	2205.47
561.94	2190.23
562.29	2175.10
562.64	2160.09
563.00	2145.06
563.35	2130.56
563.71	2115.93
564.06	2100.78
564.42	2086.19
564.77	2071.68
565.12	2057.46
565.48	2043.33
565.83	2028.72
566.19	2014.22
566.54	2000.40
566.89	1985.39
567.25	1969.78
567.60	1955.30
567.96	1940.38
568.31	1924.86
568.66	1910.14
569.02	1895.41
569.37	1880.82
569.72	1866.60
570.08	1852.06
570.43	1837.57
570.78	1822.29
571.14	1806.90
571.49	1792.02
571.84	1777.93
572.20	1762.64
572.55	1747.50
572.90	1731.82
573.26	1716.27
573.61	1700.41
573.96	1685.06
574.31	1670.44
574.67	1656.28
575.02	1641.36
575.37	1626.13
575.72	1610.78
576.08	1595.76
576.43	1580.79
576.78	1565.90
577.13	1551.10
577.49	1536.37
577.84	1521.57
578.19	1506.93
578.54	1492.38
578.90	1477.69
579.25	1462.47
579.60	1448.39
579.95	1434.27
580.30	1420.32
580.66	1406.41
581.01	1392.69
581.36	1378.87
581.71	1364.92
582.06	1351.03
582.42	1337.34
582.77	1323.90
583.12	1310.90
583.47	1297.69
583.82	1284.62
584.17	1271.61
584.53	1258.53
584.88	1245.87
585.23	1233.06
585.58	1220.52
585.93	1208.05
586.28	1196.14
586.63	1184.10
586.98	1171.96
587.34	1160.16
587.69	1148.11
588.04	1136.42
588.39	1124.84
588.74	1113.19
589.09	1101.94
589.44	1090.20
589.79	1079.01
590.14	1068.03
590.49	1057.03
590.84	1046.38
591.19	1035.79
591.54	1025.13
591.89	1014.34
592.25	1003.58
592.60	992.73
592.95	982.17
593.30	971.60
593.65	961.00
594.00	950.72
594.35	941.10
594.70	930.98
595.05	921.63
595.40	912.04
595.75	902.34
596.10	893.07
596.45	883.72
596.80	874.72
597.15	865.65
597.50	856.67
597.85	848.02
598.19	839.30
598.54	830.61
598.89	822.11
599.24	814.00
599.59	805.90
599.94	798.37
600.29	790.63
600.64	782.99
600.99	775.31
601.34	767.89
601.69	759.83
602.04	752.40
602.39	745.04
602.74	737.95
603.08	730.94
603.43	723.99
603.78	717.10
604.13	710.37
604.48	703.65
604.83	697.18
605.18	690.71
605.53	684.41
605.87	677.96
606.22	671.80
606.57	665.61
606.92	659.33
607.27	653.17
607.62	647.36
607.96	641.66
608.31	636.23
608.66	630.63
609.01	625.27
609.36	620.12
609.70	614.88
610.05	609.60
610.40	604.44
610.75	599.20
611.10	594.28
611.44	589.33
611.79	584.51
612.14	579.63
612.49	574.72
612.83	570.00
613.18	565.56
613.53	561.09
613.88	556.66
614.22	552.47
614.57	548.17
614.92	543.85
615.27	539.66
615.61	535.47
615.96	531.45
616.31	527.46
616.65	523.47
617.00	519.58
617.35	515.79
617.70	512.08
618.04	508.53
618.39	504.93
618.74	501.45
619.08	497.89
619.43	494.44
619.78	491.12
620.12	487.80
620.47	484.61
620.82	481.47
621.16	478.38
621.51	475.42
621.85	472.50
622.20	469.66
622.55	466.81
622.89	464.04
623.24	461.38
623.59	458.76
623.93	456.16
624.28	453.65
624.62	451.37
624.97	449.04
625.32	446.58
625.66	444.11
626.01	441.71
626.35	439.49
626.70	437.20
627.04	435.05
627.39	432.87
627.73	430.71
628.08	428.64
628.43	426.62
628.77	424.58
629.12	422.66
629.46	420.72
629.81	418.87
630.15	416.94
630.50	415.05
630.84	413.25
631.19	411.53
631.53	409.85
631.88	407.98
632.22	406.20
632.57	404.77
632.91	403.32
633.26	401.92
633.60	400.46
633.95	399.08
634.29	397.61
634.64	396.19
634.98	394.65
635.32	393.26
635.67	391.95
636.01	390.64
636.36	389.34
636.70	388.19
637.05	386.93
637.39	385.77
637.73	384.62
638.08	383.48
638.42	382.35
638.77	381.11
639.11	379.86
639.45	378.68
639.80	377.44
640.14	376.28
640.49	375.06
640.83	373.90
641.17	372.76
641.52	371.64
641.86	370.57
642.20	369.69
642.55	368.61
642.89	367.55
643.23	366.51
643.58	365.60
643.92	364.53
644.26	363.51
644.61	362.59
644.95	361.61
645.29	360.62
645.64	359.62
645.98	358.69
646.32	357.84
646.66	356.93
647.01	355.99
647.35	355.12
647.69	354.26
648.04	353.43
648.38	352.57
648.72	351.76
649.06	350.98
649.41	350.13
649.75	349.33
650.09	348.59
650.43	347.82
650.78	347.00
651.12	346.22
651.46	345.47
651.80	344.75
652.14	344.01
652.49	343.31
652.83	342.55
653.17	341.83
653.51	341.14
653.85	340.52
654.20	339.91
654.54	339.19
654.88	338.52
655.22	337.87
655.56	337.16
655.90	336.47
656.25	335.79
656.59	335.13
656.93	334.53
657.27	333.96
657.61	333.29
657.95	332.70
658.29	332.08
658.64	331.56
658.98	330.93
659.32	330.33
659.66	329.75
660.00	329.20
660.34	328.64
660.68	328.05
661.02	327.41
661.36	326.78
661.70	326.19
662.05	325.63
662.39	325.10
662.73	324.65
663.07	324.21
663.41	323.69
663.75	323.12
664.09	322.57
664.43	321.93
664.77	321.41
665.11	320.81
665.45	320.26
665.79	319.69
666.13	319.13
666.47	318.59
666.81	318.01
667.15	317.42
667.49	316.92
667.83	316.48
668.17	316.01
668.51	315.56
668.85	315.15
669.19	314.78
669.53	314.25
669.87	313.73
670.21	313.26
670.55	312.80
670.89	312.46
671.23	312.05
671.57	311.64
671.91	311.28
672.25	310.91
672.58	310.55
672.92	310.11
673.26	309.70
673.60	309.29
673.94	308.91
674.28	308.54
674.62	308.17
674.96	307.71
675.30	307.34
675.64	306.90
675.97	306.46
676.31	305.96
676.65	305.52
676.99	305.15
677.33	304.66
677.67	304.22
678.01	303.69
678.34	303.24
678.68	302.83
679.02	302.34
679.36	301.90
679.70	301.42
680.04	300.98
680.37	300.55
680.71	300.15
681.05	299.73
681.39	299.31
681.73	298.83
682.06	298.35
682.40	297.90
682.74	297.52
683.08	297.16
683.42	296.73
683.75	296.33
684.09	295.82
684.43	295.37
684.77	294.91
685.10	294.50
685.44	294.10
685.78	293.68
686.12	293.27
686.45	292.82
686.79	292.36
687.13	291.95
687.46	291.50
687.80	291.06
688.14	290.58
688.48	290.14
688.81	289.71
689.15	289.36
689.49	288.92
689.82	288.43
690.16	287.90
690.50	287.47
690.83	287.03
691.17	286.58
691.51	286.17
691.84	285.79
692.18	285.37
692.52	284.91
692.85	284.47
693.19	284.13
693.52	283.74
693.86	283.34
694.20	282.93
694.53	282.53
694.87	282.08
695.21	281.65
695.54	281.24
695.88	280.79
696.21	280.29
696.55	279.86
696.88	279.44
697.22	279.02
697.56	278.61
697.89	278.15
698.23	277.75
698.56	277.29
698.90	276.89
699.23	276.42
699.57	276.02
699.90	275.56
700.24	275.07
700.58	274.67
700.91	274.29
701.25	274.04
701.58	273.72
701.92	273.40
702.25	273.03
702.59	272.63
702.92	272.25
703.26	271.86
703.59	271.46
703.93	271.23
704.26	270.88
704.60	270.47
704.93	270.08
705.26	269.66
705.60	269.34
705.93	268.91
706.27	268.60
706.60	268.27
706.94	267.98
707.27	267.57
707.61	267.18
707.94	266.78
708.27	266.25
708.61	265.80
708.94	265.39
709.28	265.02
709.61	264.66
709.94	264.33
710.28	264.01
710.61	263.71
710.95	263.24
711.28	263.03
711.61	262.71
711.95	262.43
712.28	262.09
712.61	261.73
712.95	261.50
713.28	261.25
713.61	260.89
713.95	260.51
714.28	260.22
714.61	259.89
714.95	259.58
715.28	259.27
715.61	258.97
715.95	258.69
716.28	258.39
716.61	258.12
716.95	257.78
717.28	257.46
717.61	257.13
717.94	256.83
718.28	256.41
718.61	256.12
718.94	255.79
719.27	255.52
719.61	255.29
719.94	254.98
720.27	254.61
720.60	254.35
720.94	254.09
721.27	253.84
721.60	253.61
721.93	253.34
722.27	253.14
722.60	252.90
722.93	252.62
723.26	252.39
723.59	252.12
723.93	251.92
724.26	251.73
724.59	251.51
724.92	251.29
725.25	251.12
725.59	250.91
725.92	250.73
726.25	250.52
726.58	250.29
726.91	250.07
727.24	249.88
727.57	249.66
727.91	249.42
728.24	249.24
728.57	249.01
728.90	248.83
729.23	248.57
729.56	248.46
729.89	248.26
730.22	248.04
730.55	247.85
730.89	247.64
731.22	247.42
731.55	247.22
731.88	247.03
732.21	246.81
732.54	246.59
732.87	246.39
733.20	246.21
733.53	246.02
733.86	245.84
734.19	245.64
734.52	245.48
734.85	245.44
735.18	245.24
735.51	245.12
735.84	244.96
736.17	244.85
736.50	244.58
736.83	244.62
737.16	244.45
737.49	244.31
737.82	244.13
738.15	243.99
738.48	243.83
738.81	243.64
739.14	243.46
739.47	243.29
739.80	243.13
740.13	242.99
740.46	242.82
740.79	242.66
741.12	242.50
741.45	242.32
741.78	242.08
742.11	241.97
742.44	241.78
742.77	241.65
743.10	241.46
743.43	241.31
743.75	240.98
744.08	241.12
744.41	240.95
744.74	240.80
745.07	240.63
745.40	240.54
745.73	240.49
746.06	240.37
746.39	240.26
746.71	240.12
747.04	239.96
747.37	239.83
747.70	239.72
748.03	239.60
748.36	239.50
748.68	239.37
749.01	239.20
749.34	239.08
749.67	238.97
750.00	238.88
750.33	238.89
750.65	238.80
750.98	238.42
751.31	238.31
751.64	238.21
751.97	238.19
752.29	238.05
752.62	237.85
752.95	237.73
753.28	237.58
753.60	237.47
753.93	237.39
754.26	237.30
754.59	237.13
754.91	237.01
755.24	236.89
755.57	236.77
755.90	236.66
756.22	236.52
756.55	236.38
756.88	236.23
757.20	236.01
757.53	235.85
757.86	235.75
758.19	235.66
758.51	235.56
758.84	235.37
759.17	235.26
759.49	235.18
759.82	235.17
760.15	235.10
760.47	235.00
760.80	234.87
761.13	234.81
761.45	234.73
761.78	234.65
762.11	234.56
762.43	234.46
762.76	234.38
763.08	234.34
763.41	234.27
763.74	234.19
764.06	234.11
764.39	234.04
764.71	233.96
765.04	233.85
765.37	233.76
765.69	233.67
766.02	233.62
766.34	233.52
766.67	233.38
767.00	233.34
767.32	233.37
767.65	233.41
767.97	233.32
768.30	233.27
768.62	233.19
768.95	233.11
769.27	233.05
769.60	233.01
769.92	232.92
770.25	232.83
770.57	232.75
770.90	232.69
771.22	232.62
771.55	232.56
771.87	232.53
772.20	232.47
772.52	232.58
772.85	232.72
773.17	232.67
773.50	232.61
773.82	232.53
774.15	232.38
774.47	232.23
774.80	232.15
775.12	232.11
775.45	232.05
775.77	232.01
776.09	231.99
776.42	231.94
776.74	231.95
777.07	231.90
777.39	231.87
777.72	231.80
778.04	231.78
778.36	231.74
778.69	231.70
779.01	231.67
779.33	231.46
779.66	231.23
779.98	231.18
780.31	231.16
780.63	231.20
780.95	231.21
781.28	231.16
781.60	231.12
781.92	231.09
782.25	231.05
782.57	231.02
782.89	230.97
783.22	230.92
783.54	230.83
783.86	230.81
784.19	230.77
784.51	230.79
784.83	230.74
785.16	230.70
785.48	230.68
785.80	230.65
786.12	230.64
786.45	230.61
786.77	230.59
787.09	230.54
787.42	230.43
787.74	230.40
788.06	230.38
788.38	230.36
788.71	230.32
789.03	230.30
789.35	230.29
789.67	230.24
789.99	230.25
790.32	230.21
790.64	230.21
790.96	230.35
791.28	230.26
791.61	230.23
791.93	230.22
792.25	230.18
792.57	230.28
792.89	230.23
793.21	230.21
793.54	230.17
793.86	230.13
794.18	230.12
794.50	230.07
794.82	230.05
795.14	230.06
795.47	230.05
795.79	230.05
796.11	229.98
796.43	229.95
796.75	229.91
797.07	229.90
797.39	229.86
797.71	229.70
798.04	229.68
798.36	229.67
798.68	229.66
799.00	229.65
799.32	229.54
799.64	229.55
799.96	229.53
800.28	229.54
800.60	229.52
800.92	229.52
801.24	229.48
801.56	229.47
801.89	229.43
802.21	229.42
802.53	229.36
802.85	229.38
803.17	229.45
803.49	229.40
803.81	229.36
804.13	229.33
804.45	229.28
804.77	229.28
805.09	229.27
805.41	229.22
805.73	229.17
806.05	229.11
806.37	229.08
806.69	229.05
807.01	229.01
807.33	229.01
807.65	228.94
807.97	229.00
808.28	228.96
808.60	228.94
808.92	228.90
809.24	228.99
809.56	228.94
809.88	228.85
810.20	228.85
810.52	228.87
810.84	228.83
811.16	228.81
811.48	228.77
811.80	228.82
812.12	228.80
812.43	228.83
812.75	228.82
813.07	228.78
813.39	228.78
813.71	228.74
814.03	228.71
814.35	228.71
814.67	228.62
814.98	228.60
815.30	228.59
815.62	228.55
815.94	228.42
816.26	228.43
816.58	228.39
816.89	228.38
817.21	228.33
817.53	228.33
817.85	228.34
818.17	228.33
818.48	228.25
818.80	228.26
819.12	228.22
819.44	228.19
819.76	228.16
820.07	228.14
820.39	228.14
820.71	228.14
821.03	228.13
821.34	228.11
821.66	228.12
821.98	228.13
822.30	228.11
822.61	228.22
822.93	228.18
823.25	228.18
823.57	228.15
823.88	228.17
824.20	228.15
824.52	228.16
824.83	228.15
825.15	228.13
825.47	228.11
825.79	228.11
826.10	228.09
826.42	228.09
826.74	228.10
827.05	228.08
827.37	228.07
827.69	228.05
828.00	228.06
828.32	228.04
828.64	227.99
828.95	228.08
829.27	228.01
829.58	228.00
829.90	228.03
830.22	228.03
830.53	227.99
830.85	227.97
831.17	227.91
831.48	227.90
831.80	227.90
832.11	227.88
832.43	227.84
832.75	227.83
833.06	227.94
833.38	227.88
833.69	227.86
834.01	227.86
834.32	227.84
834.64	227.82
834.96	227.83
835.27	227.82
835.59	227.74
835.90	227.73
836.22	227.73
836.53	227.68
836.85	227.66
837.16	227.84
837.48	227.85
837.79	227.92
838.11	227.93
838.42	227.92
838.74	227.95
839.05	227.92
839.37	227.91
839.68	227.77
840.00	227.77
840.31	227.80
840.63	227.77
840.94	227.76
841.26	227.75
841.57	227.73
841.88	227.75
842.20	227.73
842.51	227.69
842.83	227.68
843.14	227.84
843.46	227.83
843.77	227.72
844.08	227.70
844.40	227.63
844.71	227.60
845.03	227.58
845.34	227.57
845.65	227.58
845.97	227.58
846.28	227.59
846.60	227.61
846.91	227.56
847.22	227.56
847.54	227.59
847.85	227.59
848.16	227.57
848.48	227.53
848.79	227.60
849.10	227.62
849.42	227.62
849.73	227.45
850.04	227.45
850.36	227.38
850.67	227.40
850.98	227.41
851.30	227.42
851.61	227.41
851.92	227.39
852.23	227.46
852.55	227.47
852.86	227.47
853.17	227.48
853.49	227.53
853.80	227.57
854.11	227.58
854.42	227.61
854.74	227.60
855.05	227.61
855.36	227.51
855.67	227.51
855.99	227.52
856.30	227.73
856.61	227.72
856.92	227.74
857.23	227.75
857.55	227.72
857.86	227.70
858.17	227.74
858.48	227.70
858.79	227.65
859.11	227.67
859.42	227.66
859.73	227.63
860.04	227.61
860.35	227.55
860.66	227.50
860.98	227.49
861.29	227.51
861.60	227.49
861.91	227.54
862.22	227.51
862.53	227.48
862.84	227.27
863.16	227.30
863.47	227.26
863.78	227.24
864.09	227.25
864.40	227.27
864.71	227.26
865.02	227.29
865.33	227.27
865.64	227.22
865.95	227.22
866.27	227.32
866.58	227.30
866.89	227.32
867.20	227.32
867.51	227.28
867.82	227.26
868.13	227.32
868.44	227.28
868.75	227.32
869.06	227.33
869.37	227.35
869.68	227.30
869.99	227.34
870.30	227.34
870.61	227.36
870.92	227.33
871.23	227.32
871.54	227.34
871.85	227.38
872.16	227.41
872.47	227.40
872.78	227.31
873.09	227.32
873.40	227.31
873.71	227.33
874.02	227.34
874.33	227.33
874.64	227.29
874.95	227.33
875.26	227.29
875.56	227.28
875.87	227.27
876.18	227.28
876.49	227.45
876.80	227.44
877.11	227.40
877.42	227.42
877.73	227.42
878.04	227.39
878.35	227.39
878.66	227.39
878.96	227.38
879.27	227.36
879.58	227.34
879.89	227.33
880.20	227.38
880.51	227.38
880.82	227.38
881.12	227.39
881.43	227.34
881.74	227.31
882.05	227.31
882.36	227.32
882.67	227.33
882.97	227.13
883.28	227.11
883.59	227.11
883.90	227.13
884.21	227.15
884.51	227.13
884.82	227.11
885.13	227.11
885.44	227.12
885.74	227.13
886.05	227.13
886.36	227.13
886.67	227.06
886.98	227.15
887.28	227.17
887.59	227.16
887.90	227.17
888.20	227.16
888.51	227.20
888.82	227.16
889.13	227.17
889.43	227.33
889.74	227.33
890.05	227.32
890.35	227.29
890.66	227.25
890.97	227.24
891.28	227.21
891.58	227.21
891.89	227.21
892.20	227.18
892.50	227.17
892.81	227.16
893.12	227.15
893.42	227.05
893.73	227.04
894.04	227.04
894.34	227.05
894.65	227.05
894.95	227.02
895.26	227.04
895.57	227.12
895.87	226.93
896.18	226.96
896.48	226.98
896.79	226.97
897.10	227.00
897.40	227.00
897.71	227.02
898.01	227.00
898.32	227.01
898.63	227.01
898.93	227.02
899.24	227.04
899.54	227.02
899.85	227.02
900.15	227.03
900.46	227.02
900.76	227.04
901.07	227.04
901.38	227.03
901.68	227.06
901.99	226.95
902.29	226.97
902.60	226.95
902.90	226.93
903.21	226.94
903.51	226.91
903.82	226.94
904.12	226.94
904.43	226.96
904.73	226.95
905.03	226.96
905.34	227.13
905.64	227.10
905.95	227.11
906.25	227.10
906.56	227.10
906.86	227.09
907.17	227.06
907.47	227.08
907.77	227.07
908.08	227.03
908.38	227.06
908.69	227.07
908.99	227.09
909.30	227.10
909.60	227.10
909.90	227.11
910.21	227.08
910.51	227.06
910.81	227.06
911.12	227.08
911.42	227.08
911.73	226.89
912.03	226.91
912.33	226.95
912.64	226.93
912.94	226.92
913.24	226.90
913.55	226.90
913.85	226.88
914.15	226.91
914.46	226.92
914.76	226.90
915.06	226.90
915.37	226.86
915.67	226.86
915.97	226.86
916.27	226.83
916.58	226.84
916.88	226.84
917.18	226.82
917.49	226.93
917.79	226.94
918.09	226.97
918.39	227.01
918.70	227.00
919.00	227.03
919.30	227.10
919.60	227.10
919.91	227.07
920.21	227.09
920.51	227.05
920.81	227.04
921.12	227.07
921.42	227.07
921.72	227.08
922.02	227.09
922.32	227.11
922.63	227.12
922.93	227.22
923.23	227.23
923.53	227.22
923.83	227.10
924.13	227.10
924.44	227.10
924.74	227.12
925.04	227.16
925.34	227.15
925.64	227.07
925.94	227.07
926.24	227.17
926.55	227.16
926.85	227.19
927.15	227.18
927.45	227.17
927.75	227.16
928.05	227.17
928.35	227.15
928.65	227.18
928.95	227.18
929.26	227.09
929.56	227.12
929.86	227.13
930.16	227.12
930.46	227.10
930.76	227.11
931.06	227.03
931.36	226.99
931.66	227.01
931.96	227.03
932.26	227.04
932.56	226.97
932.86	226.98
933.16	226.98
933.46	226.96
933.76	226.94
934.06	226.98
934.36	227.03
934.66	227.02
934.96	226.99
935.26	226.99
935.56	227.01
935.86	226.96
936.16	226.94
936.46	226.93
936.76	226.92
937.06	226.88
937.36	226.89
937.66	226.89
937.96	226.88
938.26	226.85
938.56	226.83
938.86	226.82
939.16	226.86
939.46	226.89
939.76	226.90
940.06	226.90
940.35	226.86
940.65	226.77
940.95	226.80
941.25	226.76
941.55	226.74
941.85	226.73
942.15	226.78
942.45	226.83
942.75	226.83
943.04	226.84
943.34	226.88
943.64	226.86
943.94	226.84
944.24	226.84
944.54	226.85
944.84	226.86
945.13	226.82
945.43	226.79
945.73	226.76
946.03	226.75
946.33	226.74
946.62	226.72
946.92	226.72
947.22	226.72
947.52	226.74
947.82	226.77
948.11	226.75
948.41	226.72
948.71	226.66
949.01	226.67
949.31	226.64
949.60	226.62
949.90	226.66
950.20	226.65
950.50	226.64
950.79	226.62
951.09	226.64
951.39	226.66
951.69	226.64
951.98	226.68
952.28	226.69
952.58	226.69
952.87	226.71
953.17	226.72
953.47	226.71
953.76	226.70
954.06	226.66
954.36	226.64
954.66	226.63
954.95	226.68
955.25	226.69
955.55	226.71
955.84	226.68
956.14	226.69
956.44	226.70
956.73	226.67
957.03	226.70
957.32	226.68
957.62	226.68
957.92	226.71
958.21	226.68
958.51	226.89
958.81	226.91
959.10	226.93
959.40	226.97
959.69	226.98
959.99	227.02
960.29	227.03
960.58	227.02
960.88	227.08
961.17	227.06
961.47	227.08
961.76	227.06
962.06	227.10
962.36	227.08
962.65	227.09
962.95	227.11
963.24	227.08
963.54	227.09
963.83	227.11
964.13	227.09
964.42	227.07
964.72	226.91
965.01	226.91
965.31	226.89
965.60	226.86
965.90	226.97
966.19	226.92
966.49	226.93
966.78	226.94
967.08	226.93
967.37	226.92
967.67	226.89
967.96	226.93
968.26	226.92
968.55	226.93
968.85	226.92
969.14	226.92
969.43	226.92
969.73	226.91
970.02	226.90
970.32	226.89
970.61	226.87
970.91	226.83
971.20	226.81
971.49	226.79
971.79	226.81
972.08	226.67
972.38	226.68
972.67	226.68
972.96	226.70
973.26	226.66
973.55	226.72
973.85	226.71
974.14	226.70
974.43	226.70
974.73	226.68
975.02	226.67
975.31	226.67
975.61	226.67
975.90	226.66
976.19	226.65
976.49	226.67
976.78	226.69
977.07	226.69
977.37	226.71
977.66	226.72
977.95	226.69
978.24	226.71
978.54	226.75
978.83	226.73
979.12	226.72
979.42	226.73
979.71	226.68
980.00	226.69
980.29	226.69
980.59	226.66
980.88	226.71
981.17	226.70
981.46	226.71
981.76	226.71
982.05	226.77
982.34	226.79
982.63	226.78
982.93	226.78
983.22	226.82
983.51	226.82
983.80	226.84
984.09	226.87
984.39	226.87
984.68	226.83
984.97	226.84
985.26	226.82
985.55	226.84
985.85	226.80
986.14	226.83
986.43	226.85
986.72	226.84
987.01	226.79
987.30	226.78
987.59	226.76
987.89	226.75
988.18	226.70
988.47	226.69
988.76	226.68
989.05	226.67
989.34	226.63
989.63	226.69
989.92	226.65
990.22	226.62
990.51	226.62
990.80	226.62
991.09	226.63
991.38	226.66
991.67	226.65
991.96	226.63
992.25	226.64
992.54	226.61
992.83	226.61
993.12	226.61
993.41	226.65
993.70	226.73
993.99	226.76
994.28	226.78
994.58	226.81
994.87	226.79
995.16	226.79
995.45	226.79
995.74	226.72
996.03	226.75
996.32	226.77
996.61	226.81
996.90	226.81
997.19	226.81
997.48	226.81
997.77	226.79
998.06	226.81
998.34	226.80
998.63	226.80
998.92	226.83
999.21	226.86
999.50	226.86
999.79	226.80
1000.08	226.79
1000.37	226.79
1000.66	226.75
1000.95	226.80
1001.24	226.81
1001.53	226.83
1001.82	226.84
1002.11	226.80
1002.40	226.81
1002.68	226.85
1002.97	226.98
1003.26	226.96
1003.55	226.93
1003.84	226.95
1004.13	227.02
1004.42	227.02
1004.71	227.00
1004.99	226.98
1005.28	227.02
1005.57	227.01
1005.86	226.99
1006.15	226.98
1006.44	226.95
1006.72	226.98
1007.01	226.94
1007.30	226.94
1007.59	226.92
1007.88	226.90
1008.17	226.91
1008.45	226.87
1008.74	226.79
1009.03	226.71
1009.32	226.71
1009.60	226.71
1009.89	226.68
1010.18	226.60
1010.47	226.59
1010.76	226.60
1011.04	226.59
1011.33	226.57
1011.62	226.58
1011.91	226.60
1012.19	226.62
1012.48	226.63
1012.77	226.62
1013.05	226.69
1013.34	226.69
1013.63	226.67
1013.92	226.70
1014.20	226.69
1014.49	226.69
1014.78	226.70
1015.06	226.64
1015.35	226.63
1015.64	226.66
1015.92	226.69
1016.21	226.71
1016.50	226.71
1016.78	226.73
1017.07	226.75
1017.36	226.72
1017.64	226.69
1017.93	226.71
1018.22	226.68
1018.50	226.67
1018.79	226.67
1019.08	226.60
1019.36	226.62
1019.65	226.61
1019.93	226.65
1020.22	226.69
1020.51	226.78
1020.79	226.76
1021.08	226.46
1021.36	226.31
1021.65	226.76
1021.94	226.61
1022.22	226.96
1022.51	226.34
1022.79	227.57
1023.08	226.89
1023.36	228.62
1023.65	226.13
>>>>>End Processed Spectral Data<<<<<
