SpectraSuite Data File
++++++++++++++++++++++++++++++++++++
Date: Tue Oct 06 13:40:06 EDT 2015
User: lab3
Dark Spectrum Present: No
Reference Spectrum Present: No
Number of Sampled Component Spectra: 1
Spectrometers: USB2E7196
Integration Time (usec): 66000 (USB2E7196)
Spectra Averaged: 1000 (USB2E7196)
Boxcar Smoothing: 10 (USB2E7196)
Correct for Electrical Dark: No (USB2E7196)
Strobe/Lamp Enabled: No (USB2E7196)
Correct for Detector Non-linearity: No (USB2E7196)
Correct for Stray Light: No (USB2E7196)
Number of Pixels in Processed Spectrum: 2048
>>>>>Begin Processed Spectral Data<<<<<
339.09	0.00
339.48	215.99
339.86	217.39
340.24	218.63
340.63	220.03
341.01	224.21
341.39	222.86
341.78	224.32
342.16	225.68
342.54	225.86
342.93	214.34
343.31	225.17
343.69	225.70
344.07	226.17
344.46	226.61
344.84	227.02
345.22	227.21
345.60	227.49
345.99	227.69
346.37	227.83
346.75	227.95
347.13	228.04
347.52	228.12
347.90	228.24
348.28	228.29
348.66	228.38
349.05	228.37
349.43	228.44
349.81	228.51
350.19	228.57
350.57	228.65
350.96	228.75
351.34	228.85
351.72	228.95
352.10	229.05
352.48	229.13
352.87	229.19
353.25	229.26
353.63	229.32
354.01	229.39
354.39	229.47
354.77	229.54
355.15	229.67
355.54	229.72
355.92	229.72
356.30	229.80
356.68	229.98
357.06	230.05
357.44	230.09
357.82	230.14
358.20	230.36
358.58	230.41
358.97	230.48
359.35	230.58
359.73	230.67
360.11	230.74
360.49	230.80
360.87	230.84
361.25	230.91
361.63	231.01
362.01	231.06
362.39	231.09
362.77	231.15
363.15	231.15
363.53	231.19
363.91	231.23
364.29	231.25
364.67	231.11
365.05	231.15
365.43	231.20
365.81	231.22
366.19	231.17
366.57	231.26
366.95	231.26
367.33	231.21
367.71	231.21
368.09	231.24
368.47	231.24
368.85	231.24
369.23	231.25
369.61	231.18
369.99	231.21
370.37	231.21
370.75	231.33
371.13	231.31
371.51	231.26
371.89	231.24
372.27	231.23
372.65	231.22
373.03	231.17
373.41	231.13
373.78	231.08
374.16	230.95
374.54	230.84
374.92	230.79
375.30	230.76
375.68	230.67
376.06	230.62
376.44	230.57
376.82	230.52
377.19	230.47
377.57	230.42
377.95	230.31
378.33	230.24
378.71	230.04
379.09	229.99
379.47	229.97
379.84	229.90
380.22	229.84
380.60	229.76
380.98	229.71
381.36	229.64
381.73	229.58
382.11	229.57
382.49	229.54
382.87	229.48
383.25	229.43
383.62	229.61
384.00	229.54
384.38	229.50
384.76	229.50
385.13	229.51
385.51	229.47
385.89	229.42
386.27	229.40
386.64	229.38
387.02	229.33
387.40	229.29
387.78	229.27
388.15	229.24
388.53	229.21
388.91	229.19
389.29	229.17
389.66	229.18
390.04	229.13
390.42	229.14
390.79	229.13
391.17	229.12
391.55	228.92
391.92	228.91
392.30	228.93
392.68	228.89
393.05	228.88
393.43	228.89
393.81	228.91
394.18	228.89
394.56	228.90
394.94	228.96
395.31	228.98
395.69	229.06
396.06	229.11
396.44	229.15
396.82	229.17
397.19	229.30
397.57	229.33
397.95	229.42
398.32	229.41
398.70	229.49
399.07	229.58
399.45	229.64
399.82	229.73
400.20	229.78
400.58	229.87
400.95	229.90
401.33	230.03
401.70	230.26
402.08	230.40
402.45	230.54
402.83	230.71
403.20	230.87
403.58	231.00
403.95	231.19
404.33	231.41
404.71	231.62
405.08	231.92
405.46	232.15
405.83	232.42
406.21	232.71
406.58	233.03
406.96	233.36
407.33	233.73
407.70	234.14
408.08	234.71
408.45	235.20
408.83	235.73
409.20	236.23
409.58	236.67
409.95	237.30
410.33	237.95
410.70	238.59
411.08	239.32
411.45	240.12
411.82	240.93
412.20	241.83
412.57	242.91
412.95	243.77
413.32	244.89
413.69	246.04
414.07	247.26
414.44	248.61
414.82	249.97
415.19	251.57
415.56	253.21
415.94	254.90
416.31	256.80
416.68	258.73
417.06	260.93
417.43	263.00
417.81	265.38
418.18	267.81
418.55	270.46
418.93	273.22
419.30	276.11
419.67	279.17
420.04	282.34
420.42	285.63
420.79	289.44
421.16	293.27
421.54	297.18
421.91	301.24
422.28	305.46
422.66	310.00
423.03	314.30
423.40	318.84
423.77	323.68
424.15	328.63
424.52	333.75
424.89	339.33
425.26	344.86
425.64	350.00
426.01	355.76
426.38	361.66
426.75	367.71
427.13	373.86
427.50	380.33
427.87	387.03
428.24	393.76
428.61	400.21
428.99	407.17
429.36	414.83
429.73	422.16
430.10	429.45
430.47	436.93
430.85	444.67
431.22	452.91
431.59	461.34
431.96	469.57
432.33	478.73
432.70	487.44
433.08	497.78
433.45	507.49
433.82	517.05
434.19	527.73
434.56	538.26
434.93	548.48
435.30	558.62
435.68	570.13
436.05	581.38
436.42	592.64
436.79	602.92
437.16	613.99
437.53	625.94
437.90	637.92
438.27	649.56
438.64	662.09
439.01	673.50
439.38	684.08
439.75	694.26
440.13	705.83
440.50	716.88
440.87	725.64
441.24	735.29
441.61	745.89
441.98	753.69
442.35	762.92
442.72	772.40
443.09	781.50
443.46	787.51
443.83	791.99
444.20	795.68
444.57	801.12
444.94	804.49
445.31	807.83
445.68	810.68
446.05	812.92
446.42	812.76
446.79	812.41
447.16	812.08
447.53	811.96
447.90	808.75
448.27	805.56
448.64	800.56
449.01	797.28
449.37	790.16
449.74	783.77
450.11	775.39
450.48	766.10
450.85	756.69
451.22	748.51
451.59	740.58
451.96	733.54
452.33	723.14
452.70	713.79
453.07	702.50
453.43	691.26
453.80	680.25
454.17	669.76
454.54	659.96
454.91	648.87
455.28	638.32
455.65	628.34
456.02	617.89
456.38	609.41
456.75	598.47
457.12	589.65
457.49	580.73
457.86	572.38
458.23	565.04
458.59	556.92
458.96	548.64
459.33	541.35
459.70	533.89
460.07	528.13
460.43	521.40
460.80	515.07
461.17	509.54
461.54	503.65
461.91	498.11
462.27	492.49
462.64	487.89
463.01	482.62
463.38	477.41
463.74	472.67
464.11	468.49
464.48	464.72
464.85	460.62
465.21	457.47
465.58	453.95
465.95	449.95
466.32	446.76
466.68	443.62
467.05	440.46
467.42	437.38
467.78	434.11
468.15	431.11
468.52	428.92
468.88	426.03
469.25	423.38
469.62	421.27
469.98	418.95
470.35	416.89
470.72	415.06
471.08	413.13
471.45	411.50
471.82	409.70
472.18	407.83
472.55	406.63
472.92	405.11
473.28	403.92
473.65	402.65
474.02	401.49
474.38	400.48
474.75	399.86
475.11	399.01
475.48	398.60
475.85	398.16
476.21	397.91
476.58	397.75
476.94	397.91
477.31	397.96
477.67	398.10
478.04	398.39
478.41	398.78
478.77	399.37
479.14	399.72
479.50	400.47
479.87	401.41
480.23	402.37
480.60	403.30
480.96	404.23
481.33	405.63
481.69	406.99
482.06	408.36
482.42	409.63
482.79	411.19
483.15	413.03
483.52	415.12
483.88	417.11
484.25	419.22
484.61	421.44
484.98	423.80
485.34	426.48
485.71	429.24
486.07	432.21
486.44	435.11
486.80	438.41
487.17	441.77
487.53	445.46
487.90	449.29
488.26	453.47
488.62	457.88
488.99	462.31
489.35	467.01
489.72	472.06
490.08	477.34
490.44	482.74
490.81	488.30
491.17	493.98
491.54	500.06
491.90	506.28
492.26	512.90
492.63	519.86
492.99	527.05
493.36	534.54
493.72	542.42
494.08	550.45
494.45	558.88
494.81	567.69
495.17	576.70
495.54	586.22
495.90	596.14
496.26	606.33
496.63	616.73
496.99	627.47
497.35	638.65
497.72	650.18
498.08	662.16
498.44	674.40
498.80	687.42
499.17	700.79
499.53	714.59
499.89	728.74
500.26	743.01
500.62	757.57
500.98	772.80
501.34	788.23
501.71	804.36
502.07	820.76
502.43	837.62
502.79	854.62
503.16	872.07
503.52	889.78
503.88	907.93
504.24	926.51
504.60	945.39
504.97	964.65
505.33	984.38
505.69	1005.08
506.05	1025.84
506.41	1046.49
506.78	1067.48
507.14	1089.23
507.50	1111.49
507.86	1134.12
508.22	1156.92
508.59	1179.55
508.95	1202.99
509.31	1226.88
509.67	1251.44
510.03	1275.81
510.39	1300.65
510.75	1325.47
511.12	1350.36
511.48	1375.29
511.84	1400.30
512.20	1425.75
512.56	1451.68
512.92	1477.40
513.28	1502.79
513.64	1528.55
514.00	1554.39
514.37	1580.38
514.73	1606.11
515.09	1631.32
515.45	1656.83
515.81	1682.39
516.17	1707.99
516.53	1732.94
516.89	1757.89
517.25	1782.87
517.61	1807.71
517.97	1832.71
518.33	1857.33
518.69	1881.88
519.05	1906.55
519.41	1931.15
519.77	1955.70
520.13	1979.96
520.49	2004.08
520.85	2028.20
521.21	2052.15
521.57	2076.30
521.93	2099.38
522.29	2122.98
522.65	2146.10
523.01	2169.02
523.37	2191.12
523.73	2213.64
524.09	2236.29
524.45	2258.90
524.81	2280.72
525.17	2302.33
525.53	2323.26
525.89	2344.48
526.25	2365.25
526.61	2384.96
526.97	2404.84
527.33	2424.16
527.68	2442.67
528.04	2460.53
528.40	2477.40
528.76	2494.80
529.12	2511.03
529.48	2527.68
529.84	2543.01
530.20	2559.47
530.56	2574.82
530.91	2590.07
531.27	2604.38
531.63	2617.68
531.99	2630.68
532.35	2642.12
532.71	2653.61
533.07	2665.31
533.42	2675.50
533.78	2686.44
534.14	2697.58
534.50	2707.29
534.86	2717.19
535.21	2725.11
535.57	2733.20
535.93	2741.67
536.29	2748.93
536.65	2756.47
537.00	2761.86
537.36	2767.69
537.72	2771.74
538.08	2775.52
538.44	2778.50
538.79	2781.75
539.15	2784.42
539.51	2786.52
539.87	2789.29
540.22	2789.99
540.58	2791.17
540.94	2791.91
541.29	2791.22
541.65	2789.04
542.01	2786.89
542.37	2783.72
542.72	2782.31
543.08	2779.49
543.44	2776.55
543.79	2771.76
544.15	2766.85
544.51	2762.81
544.87	2756.76
545.22	2750.20
545.58	2743.86
545.94	2738.30
546.29	2731.06
546.65	2723.11
547.01	2715.20
547.36	2706.93
547.72	2698.64
548.07	2689.17
548.43	2679.58
548.79	2668.85
549.14	2659.14
549.50	2649.35
549.86	2638.98
550.21	2626.67
550.57	2615.76
550.92	2603.01
551.28	2590.98
551.64	2579.20
551.99	2567.47
552.35	2555.91
552.70	2544.04
553.06	2532.45
553.41	2519.68
553.77	2506.53
554.13	2493.63
554.48	2479.97
554.84	2465.74
555.19	2452.42
555.55	2438.31
555.90	2424.30
556.26	2411.28
556.61	2397.51
556.97	2382.74
557.32	2368.30
557.68	2354.09
558.03	2339.23
558.39	2325.22
558.74	2311.52
559.10	2295.69
559.45	2280.38
559.81	2265.70
560.16	2250.73
560.52	2235.43
560.87	2220.96
561.23	2206.03
561.58	2191.46
561.94	2176.20
562.29	2161.08
562.64	2145.90
563.00	2130.84
563.35	2116.40
563.71	2101.73
564.06	2086.70
564.42	2072.12
564.77	2057.66
565.12	2043.67
565.48	2029.56
565.83	2015.05
566.19	2000.66
566.54	1986.83
566.89	1971.74
567.25	1956.20
567.60	1941.89
567.96	1927.04
568.31	1911.63
568.66	1897.04
569.02	1882.43
569.37	1867.96
569.72	1853.83
570.08	1839.58
570.43	1825.29
570.78	1810.20
571.14	1795.06
571.49	1780.35
571.84	1766.50
572.20	1751.27
572.55	1736.22
572.90	1720.63
573.26	1705.19
573.61	1689.42
573.96	1674.26
574.31	1659.77
574.67	1645.73
575.02	1630.81
575.37	1615.63
575.72	1600.30
576.08	1585.37
576.43	1570.48
576.78	1555.63
577.13	1540.86
577.49	1526.06
577.84	1511.22
578.19	1496.55
578.54	1481.98
578.90	1467.25
579.25	1451.99
579.60	1437.95
579.95	1423.82
580.30	1409.96
580.66	1396.07
581.01	1382.41
581.36	1368.55
581.71	1354.67
582.06	1340.77
582.42	1327.14
582.77	1313.84
583.12	1300.85
583.47	1287.68
583.82	1274.63
584.17	1261.65
584.53	1248.63
584.88	1236.04
585.23	1223.30
585.58	1210.79
585.93	1198.29
586.28	1186.41
586.63	1174.42
586.98	1162.30
587.34	1150.55
587.69	1138.53
588.04	1126.93
588.39	1115.46
588.74	1103.93
589.09	1092.74
589.44	1081.08
589.79	1069.93
590.14	1058.95
590.49	1048.03
590.84	1037.43
591.19	1026.90
591.54	1016.37
591.89	1005.67
592.25	995.00
592.60	984.28
592.95	973.83
593.30	963.46
593.65	953.01
594.00	942.83
594.35	933.30
594.70	923.33
595.05	914.08
595.40	904.59
595.75	894.99
596.10	885.85
596.45	876.59
596.80	867.74
597.15	858.87
597.50	850.05
597.85	841.58
598.19	833.03
598.54	824.48
598.89	816.13
599.24	808.17
599.59	800.24
599.94	792.85
600.29	785.24
600.64	777.70
600.99	770.13
601.34	762.84
601.69	754.92
602.04	747.59
602.39	740.34
602.74	733.33
603.08	726.35
603.43	719.43
603.78	712.63
604.13	705.97
604.48	699.27
604.83	692.84
605.18	686.36
605.53	680.02
605.87	673.59
606.22	667.43
606.57	661.21
606.92	654.95
607.27	648.80
607.62	642.98
607.96	637.26
608.31	631.85
608.66	626.23
609.01	620.91
609.36	615.82
609.70	610.61
610.05	605.33
610.40	600.24
610.75	595.05
611.10	590.20
611.44	585.26
611.79	580.45
612.14	575.59
612.49	570.72
612.83	566.09
613.18	561.68
613.53	557.25
613.88	552.87
614.22	548.71
614.57	544.41
614.92	540.17
615.27	536.03
615.61	531.89
615.96	527.92
616.31	523.97
616.65	519.98
617.00	516.11
617.35	512.36
617.70	508.68
618.04	505.18
618.39	501.59
618.74	498.15
619.08	494.64
619.43	491.22
619.78	487.94
620.12	484.68
620.47	481.57
620.82	478.47
621.16	475.44
621.51	472.52
621.85	469.66
622.20	466.87
622.55	464.07
622.89	461.32
623.24	458.71
623.59	456.09
623.93	453.53
624.28	451.07
624.62	448.83
624.97	446.57
625.32	444.14
625.66	441.73
626.01	439.37
626.35	437.21
626.70	434.96
627.04	432.85
627.39	430.69
627.73	428.57
628.08	426.55
628.43	424.56
628.77	422.55
629.12	420.68
629.46	418.76
629.81	416.96
630.15	415.09
630.50	413.24
630.84	411.48
631.19	409.80
631.53	408.17
631.88	406.33
632.22	404.59
632.57	403.18
632.91	401.72
633.26	400.35
633.60	398.92
633.95	397.57
634.29	396.13
634.64	394.74
634.98	393.21
635.32	391.84
635.67	390.57
636.01	389.29
636.36	388.03
636.70	386.93
637.05	385.68
637.39	384.53
637.73	383.40
638.08	382.29
638.42	381.18
638.77	379.97
639.11	378.75
639.45	377.60
639.80	376.40
640.14	375.26
640.49	374.07
640.83	372.92
641.17	371.79
641.52	370.70
641.86	369.65
642.20	368.78
642.55	367.72
642.89	366.68
643.23	365.65
643.58	364.73
643.92	363.67
644.26	362.68
644.61	361.77
644.95	360.82
645.29	359.85
645.64	358.88
645.98	357.95
646.32	357.12
646.66	356.22
647.01	355.31
647.35	354.49
647.69	353.65
648.04	352.86
648.38	352.03
648.72	351.24
649.06	350.47
649.41	349.66
649.75	348.89
650.09	348.18
650.43	347.44
650.78	346.63
651.12	345.88
651.46	345.15
651.80	344.43
652.14	343.71
652.49	343.03
652.83	342.30
653.17	341.61
653.51	340.93
653.85	340.32
654.20	339.70
654.54	338.99
654.88	338.31
655.22	337.66
655.56	336.96
655.90	336.27
656.25	335.60
656.59	334.93
656.93	334.34
657.27	333.76
657.61	333.10
657.95	332.54
658.29	331.95
658.64	331.43
658.98	330.83
659.32	330.22
659.66	329.65
660.00	329.12
660.34	328.56
660.68	327.99
661.02	327.37
661.36	326.76
661.70	326.20
662.05	325.68
662.39	325.20
662.73	324.78
663.07	324.37
663.41	323.89
663.75	323.35
664.09	322.82
664.43	322.23
664.77	321.74
665.11	321.14
665.45	320.61
665.79	320.06
666.13	319.52
666.47	319.00
666.81	318.44
667.15	317.85
667.49	317.38
667.83	316.95
668.17	316.50
668.51	316.05
668.85	315.62
669.19	315.25
669.53	314.72
669.87	314.21
670.21	313.73
670.55	313.27
670.89	312.93
671.23	312.49
671.57	312.09
671.91	311.70
672.25	311.35
672.58	311.00
672.92	310.56
673.26	310.18
673.60	309.79
673.94	309.41
674.28	309.06
674.62	308.69
674.96	308.23
675.30	307.82
675.64	307.40
675.97	306.97
676.31	306.46
676.65	306.03
676.99	305.68
677.33	305.20
677.67	304.76
678.01	304.21
678.34	303.77
678.68	303.36
679.02	302.89
679.36	302.44
679.70	301.95
680.04	301.53
680.37	301.08
680.71	300.67
681.05	300.27
681.39	299.82
681.73	299.34
682.06	298.89
682.40	298.47
682.74	298.10
683.08	297.77
683.42	297.34
683.75	296.93
684.09	296.40
684.43	295.96
684.77	295.52
685.10	295.13
685.44	294.75
685.78	294.34
686.12	293.94
686.45	293.50
686.79	293.05
687.13	292.63
687.46	292.19
687.80	291.75
688.14	291.26
688.48	290.84
688.81	290.44
689.15	290.08
689.49	289.62
689.82	289.14
690.16	288.60
690.50	288.17
690.83	287.74
691.17	287.29
691.51	286.87
691.84	286.49
692.18	286.07
692.52	285.59
692.85	285.16
693.19	284.79
693.52	284.38
693.86	283.97
694.20	283.56
694.53	283.14
694.87	282.69
695.21	282.25
695.54	281.82
695.88	281.35
696.21	280.83
696.55	280.40
696.88	279.98
697.22	279.56
697.56	279.16
697.89	278.70
698.23	278.29
698.56	277.85
698.90	277.45
699.23	276.99
699.57	276.60
699.90	276.15
700.24	275.66
700.58	275.26
700.91	274.90
701.25	274.66
701.58	274.35
701.92	274.04
702.25	273.69
702.59	273.29
702.92	272.92
703.26	272.56
703.59	272.18
703.93	271.93
704.26	271.58
704.60	271.19
704.93	270.82
705.26	270.43
705.60	270.08
705.93	269.65
706.27	269.34
706.60	269.00
706.94	268.71
707.27	268.32
707.61	267.94
707.94	267.55
708.27	267.01
708.61	266.55
708.94	266.14
709.28	265.76
709.61	265.40
709.94	265.08
710.28	264.76
710.61	264.47
710.95	263.99
711.28	263.78
711.61	263.45
711.95	263.16
712.28	262.82
712.61	262.47
712.95	262.23
713.28	261.97
713.61	261.61
713.95	261.25
714.28	260.96
714.61	260.63
714.95	260.32
715.28	260.00
715.61	259.73
715.95	259.46
716.28	259.16
716.61	258.88
716.95	258.55
717.28	258.22
717.61	257.89
717.94	257.59
718.28	257.18
718.61	256.90
718.94	256.59
719.27	256.33
719.61	256.09
719.94	255.80
720.27	255.45
720.60	255.19
720.94	254.95
721.27	254.68
721.60	254.46
721.93	254.19
722.27	254.00
722.60	253.77
722.93	253.49
723.26	253.28
723.59	253.01
723.93	252.82
724.26	252.61
724.59	252.38
724.92	252.17
725.25	252.00
725.59	251.78
725.92	251.59
726.25	251.36
726.58	251.14
726.91	250.90
727.24	250.69
727.57	250.47
727.91	250.22
728.24	250.04
728.57	249.82
728.90	249.65
729.23	249.40
729.56	249.27
729.89	249.08
730.22	248.86
730.55	248.65
730.89	248.44
731.22	248.23
731.55	248.03
731.88	247.84
732.21	247.62
732.54	247.42
732.87	247.22
733.20	247.06
733.53	246.88
733.86	246.72
734.19	246.51
734.52	246.37
734.85	246.32
735.18	246.12
735.51	246.01
735.84	245.85
736.17	245.73
736.50	245.45
736.83	245.49
737.16	245.32
737.49	245.19
737.82	245.02
738.15	244.88
738.48	244.72
738.81	244.55
739.14	244.37
739.47	244.20
739.80	244.05
740.13	243.90
740.46	243.72
740.79	243.55
741.12	243.41
741.45	243.23
741.78	242.98
742.11	242.88
742.44	242.69
742.77	242.56
743.10	242.38
743.43	242.25
743.75	241.91
744.08	242.03
744.41	241.87
744.74	241.72
745.07	241.54
745.40	241.44
745.73	241.39
746.06	241.27
746.39	241.17
746.71	241.02
747.04	240.87
747.37	240.74
747.70	240.64
748.03	240.51
748.36	240.42
748.68	240.29
749.01	240.13
749.34	240.01
749.67	239.89
750.00	239.80
750.33	239.82
750.65	239.72
750.98	239.36
751.31	239.28
751.64	239.18
751.97	239.17
752.29	239.03
752.62	238.85
752.95	238.73
753.28	238.57
753.60	238.46
753.93	238.39
754.26	238.31
754.59	238.14
754.91	238.02
755.24	237.90
755.57	237.81
755.90	237.69
756.22	237.57
756.55	237.43
756.88	237.30
757.20	237.08
757.53	236.94
757.86	236.83
758.19	236.74
758.51	236.63
758.84	236.45
759.17	236.35
759.49	236.26
759.82	236.26
760.15	236.20
760.47	236.11
760.80	235.98
761.13	235.91
761.45	235.83
761.78	235.76
762.11	235.67
762.43	235.55
762.76	235.46
763.08	235.40
763.41	235.33
763.74	235.25
764.06	235.15
764.39	235.08
764.71	234.99
765.04	234.88
765.37	234.79
765.69	234.71
766.02	234.63
766.34	234.55
766.67	234.41
767.00	234.37
767.32	234.40
767.65	234.44
767.97	234.34
768.30	234.28
768.62	234.22
768.95	234.14
769.27	234.08
769.60	234.05
769.92	233.95
770.25	233.85
770.57	233.77
770.90	233.72
771.22	233.64
771.55	233.60
771.87	233.57
772.20	233.51
772.52	233.61
772.85	233.77
773.17	233.71
773.50	233.65
773.82	233.56
774.15	233.41
774.47	233.25
774.80	233.19
775.12	233.14
775.45	233.08
775.77	233.04
776.09	233.01
776.42	232.96
776.74	232.96
777.07	232.92
777.39	232.89
777.72	232.84
778.04	232.83
778.36	232.77
778.69	232.73
779.01	232.70
779.33	232.50
779.66	232.25
779.98	232.20
780.31	232.17
780.63	232.21
780.95	232.20
781.28	232.16
781.60	232.12
781.92	232.08
782.25	232.04
782.57	232.02
782.89	231.98
783.22	231.94
783.54	231.87
783.86	231.85
784.19	231.80
784.51	231.81
784.83	231.76
785.16	231.72
785.48	231.69
785.80	231.65
786.12	231.64
786.45	231.62
786.77	231.60
787.09	231.56
787.42	231.45
787.74	231.43
788.06	231.41
788.38	231.37
788.71	231.32
789.03	231.32
789.35	231.30
789.67	231.25
789.99	231.23
790.32	231.19
790.64	231.17
790.96	231.33
791.28	231.23
791.61	231.20
791.93	231.18
792.25	231.14
792.57	231.25
792.89	231.20
793.21	231.17
793.54	231.14
793.86	231.10
794.18	231.10
794.50	231.04
794.82	231.02
795.14	231.02
795.47	231.02
795.79	231.00
796.11	230.94
796.43	230.92
796.75	230.89
797.07	230.88
797.39	230.85
797.71	230.68
798.04	230.68
798.36	230.66
798.68	230.65
799.00	230.65
799.32	230.54
799.64	230.55
799.96	230.53
800.28	230.54
800.60	230.52
800.92	230.51
801.24	230.48
801.56	230.49
801.89	230.44
802.21	230.43
802.53	230.38
802.85	230.39
803.17	230.45
803.49	230.40
803.81	230.37
804.13	230.33
804.45	230.28
804.77	230.27
805.09	230.26
805.41	230.22
805.73	230.16
806.05	230.10
806.37	230.07
806.69	230.04
807.01	230.01
807.33	230.00
807.65	229.93
807.97	229.99
808.28	229.94
808.60	229.93
808.92	229.89
809.24	229.99
809.56	229.95
809.88	229.87
810.20	229.88
810.52	229.90
810.84	229.87
811.16	229.85
811.48	229.82
811.80	229.87
812.12	229.86
812.43	229.89
812.75	229.89
813.07	229.86
813.39	229.86
813.71	229.83
814.03	229.80
814.35	229.79
814.67	229.70
814.98	229.68
815.30	229.67
815.62	229.63
815.94	229.51
816.26	229.51
816.58	229.48
816.89	229.49
817.21	229.43
817.53	229.42
817.85	229.43
818.17	229.42
818.48	229.33
818.80	229.36
819.12	229.32
819.44	229.28
819.76	229.24
820.07	229.22
820.39	229.21
820.71	229.21
821.03	229.20
821.34	229.18
821.66	229.20
821.98	229.20
822.30	229.19
822.61	229.29
822.93	229.25
823.25	229.24
823.57	229.19
823.88	229.21
824.20	229.19
824.52	229.21
824.83	229.19
825.15	229.16
825.47	229.14
825.79	229.15
826.10	229.14
826.42	229.13
826.74	229.14
827.05	229.12
827.37	229.12
827.69	229.12
828.00	229.12
828.32	229.10
828.64	229.07
828.95	229.16
829.27	229.10
829.58	229.09
829.90	229.11
830.22	229.11
830.53	229.07
830.85	229.05
831.17	229.01
831.48	229.00
831.80	229.01
832.11	228.98
832.43	228.96
832.75	228.95
833.06	229.05
833.38	229.00
833.69	228.99
834.01	228.98
834.32	228.96
834.64	228.93
834.96	228.91
835.27	228.91
835.59	228.84
835.90	228.81
836.22	228.81
836.53	228.76
836.85	228.73
837.16	228.91
837.48	228.91
837.79	228.94
838.11	228.96
838.42	228.95
838.74	228.96
839.05	228.94
839.37	228.92
839.68	228.80
840.00	228.81
840.31	228.83
840.63	228.81
840.94	228.79
841.26	228.76
841.57	228.76
841.88	228.76
842.20	228.72
842.51	228.69
842.83	228.68
843.14	228.84
843.46	228.84
843.77	228.73
844.08	228.71
844.40	228.64
844.71	228.62
845.03	228.61
845.34	228.59
845.65	228.58
845.97	228.59
846.28	228.60
846.60	228.60
846.91	228.57
847.22	228.56
847.54	228.60
847.85	228.61
848.16	228.60
848.48	228.56
848.79	228.64
849.10	228.66
849.42	228.67
849.73	228.50
850.04	228.49
850.36	228.44
850.67	228.48
850.98	228.48
851.30	228.49
851.61	228.49
851.92	228.47
852.23	228.53
852.55	228.53
852.86	228.53
853.17	228.52
853.49	228.57
853.80	228.59
854.11	228.60
854.42	228.62
854.74	228.59
855.05	228.61
855.36	228.51
855.67	228.50
855.99	228.49
856.30	228.71
856.61	228.71
856.92	228.71
857.23	228.71
857.55	228.70
857.86	228.68
858.17	228.71
858.48	228.68
858.79	228.64
859.11	228.64
859.42	228.64
859.73	228.62
860.04	228.61
860.35	228.56
860.66	228.52
860.98	228.51
861.29	228.55
861.60	228.52
861.91	228.57
862.22	228.53
862.53	228.50
862.84	228.28
863.16	228.31
863.47	228.28
863.78	228.25
864.09	228.27
864.40	228.28
864.71	228.26
865.02	228.30
865.33	228.27
865.64	228.24
865.95	228.24
866.27	228.33
866.58	228.31
866.89	228.34
867.20	228.32
867.51	228.28
867.82	228.27
868.13	228.32
868.44	228.29
868.75	228.33
869.06	228.35
869.37	228.37
869.68	228.32
869.99	228.35
870.30	228.36
870.61	228.37
870.92	228.34
871.23	228.31
871.54	228.34
871.85	228.38
872.16	228.41
872.47	228.41
872.78	228.31
873.09	228.33
873.40	228.29
873.71	228.31
874.02	228.33
874.33	228.32
874.64	228.28
874.95	228.30
875.26	228.26
875.56	228.25
875.87	228.24
876.18	228.23
876.49	228.40
876.80	228.38
877.11	228.35
877.42	228.37
877.73	228.38
878.04	228.35
878.35	228.34
878.66	228.34
878.96	228.33
879.27	228.33
879.58	228.32
879.89	228.32
880.20	228.37
880.51	228.35
880.82	228.35
881.12	228.36
881.43	228.33
881.74	228.32
882.05	228.30
882.36	228.32
882.67	228.33
882.97	228.14
883.28	228.14
883.59	228.13
883.90	228.14
884.21	228.17
884.51	228.15
884.82	228.13
885.13	228.12
885.44	228.11
885.74	228.10
886.05	228.08
886.36	228.09
886.67	228.03
886.98	228.12
887.28	228.14
887.59	228.15
887.90	228.15
888.20	228.15
888.51	228.18
888.82	228.16
889.13	228.18
889.43	228.33
889.74	228.31
890.05	228.31
890.35	228.29
890.66	228.25
890.97	228.24
891.28	228.22
891.58	228.23
891.89	228.22
892.20	228.22
892.50	228.21
892.81	228.18
893.12	228.18
893.42	228.09
893.73	228.08
894.04	228.07
894.34	228.07
894.65	228.08
894.95	228.06
895.26	228.08
895.57	228.15
895.87	227.97
896.18	228.01
896.48	228.01
896.79	228.01
897.10	228.05
897.40	228.06
897.71	228.09
898.01	228.07
898.32	228.09
898.63	228.08
898.93	228.11
899.24	228.12
899.54	228.11
899.85	228.10
900.15	228.09
900.46	228.09
900.76	228.11
901.07	228.10
901.38	228.09
901.68	228.11
901.99	228.01
902.29	228.04
902.60	228.03
902.90	228.02
903.21	228.02
903.51	228.00
903.82	228.03
904.12	228.03
904.43	228.05
904.73	228.04
905.03	228.04
905.34	228.20
905.64	228.19
905.95	228.19
906.25	228.19
906.56	228.19
906.86	228.19
907.17	228.17
907.47	228.18
907.77	228.17
908.08	228.13
908.38	228.14
908.69	228.15
908.99	228.18
909.30	228.17
909.60	228.16
909.90	228.15
910.21	228.09
910.51	228.06
910.81	228.05
911.12	228.06
911.42	228.07
911.73	227.89
912.03	227.91
912.33	227.94
912.64	227.93
912.94	227.91
913.24	227.90
913.55	227.88
913.85	227.87
914.15	227.90
914.46	227.92
914.76	227.90
915.06	227.87
915.37	227.83
915.67	227.84
915.97	227.84
916.27	227.83
916.58	227.85
916.88	227.84
917.18	227.84
917.49	227.95
917.79	227.94
918.09	227.97
918.39	228.00
918.70	227.99
919.00	227.99
919.30	228.08
919.60	228.07
919.91	228.05
920.21	228.05
920.51	228.00
920.81	227.98
921.12	228.02
921.42	228.02
921.72	228.04
922.02	228.04
922.32	228.07
922.63	228.07
922.93	228.17
923.23	228.17
923.53	228.16
923.83	228.04
924.13	228.06
924.44	228.05
924.74	228.07
925.04	228.10
925.34	228.10
925.64	228.02
925.94	228.03
926.24	228.12
926.55	228.11
926.85	228.14
927.15	228.14
927.45	228.14
927.75	228.13
928.05	228.13
928.35	228.12
928.65	228.13
928.95	228.14
929.26	228.05
929.56	228.09
929.86	228.11
930.16	228.09
930.46	228.09
930.76	228.09
931.06	228.01
931.36	227.96
931.66	227.99
931.96	228.02
932.26	228.03
932.56	227.96
932.86	227.98
933.16	227.97
933.46	227.96
933.76	227.94
934.06	227.97
934.36	228.03
934.66	228.02
934.96	227.99
935.26	228.00
935.56	228.02
935.86	227.97
936.16	227.96
936.46	227.95
936.76	227.93
937.06	227.91
937.36	227.93
937.66	227.94
937.96	227.92
938.26	227.88
938.56	227.87
938.86	227.88
939.16	227.91
939.46	227.92
939.76	227.94
940.06	227.93
940.35	227.90
940.65	227.81
940.95	227.83
941.25	227.79
941.55	227.78
941.85	227.76
942.15	227.80
942.45	227.83
942.75	227.83
943.04	227.83
943.34	227.87
943.64	227.86
943.94	227.84
944.24	227.84
944.54	227.86
944.84	227.86
945.13	227.83
945.43	227.79
945.73	227.78
946.03	227.77
946.33	227.76
946.62	227.75
946.92	227.75
947.22	227.77
947.52	227.79
947.82	227.80
948.11	227.79
948.41	227.76
948.71	227.71
949.01	227.73
949.31	227.72
949.60	227.70
949.90	227.73
950.20	227.72
950.50	227.73
950.79	227.72
951.09	227.74
951.39	227.74
951.69	227.73
951.98	227.75
952.28	227.76
952.58	227.76
952.87	227.75
953.17	227.78
953.47	227.74
953.76	227.72
954.06	227.70
954.36	227.68
954.66	227.68
954.95	227.72
955.25	227.74
955.55	227.75
955.84	227.72
956.14	227.72
956.44	227.74
956.73	227.71
957.03	227.72
957.32	227.71
957.62	227.72
957.92	227.76
958.21	227.74
958.51	227.95
958.81	227.96
959.10	227.98
959.40	228.02
959.69	228.04
959.99	228.06
960.29	228.06
960.58	228.06
960.88	228.12
961.17	228.10
961.47	228.11
961.76	228.09
962.06	228.12
962.36	228.09
962.65	228.09
962.95	228.10
963.24	228.08
963.54	228.09
963.83	228.09
964.13	228.09
964.42	228.07
964.72	227.91
965.01	227.92
965.31	227.91
965.60	227.85
965.90	227.97
966.19	227.95
966.49	227.95
966.78	227.94
967.08	227.91
967.37	227.91
967.67	227.87
967.96	227.92
968.26	227.90
968.55	227.93
968.85	227.93
969.14	227.93
969.43	227.93
969.73	227.91
970.02	227.91
970.32	227.89
970.61	227.86
970.91	227.82
971.20	227.79
971.49	227.78
971.79	227.79
972.08	227.67
972.38	227.68
972.67	227.68
972.96	227.71
973.26	227.69
973.55	227.74
973.85	227.73
974.14	227.72
974.43	227.74
974.73	227.70
975.02	227.70
975.31	227.68
975.61	227.68
975.90	227.67
976.19	227.65
976.49	227.66
976.78	227.68
977.07	227.67
977.37	227.69
977.66	227.71
977.95	227.68
978.24	227.69
978.54	227.73
978.83	227.70
979.12	227.70
979.42	227.70
979.71	227.66
980.00	227.67
980.29	227.67
980.59	227.62
980.88	227.67
981.17	227.67
981.46	227.68
981.76	227.68
982.05	227.74
982.34	227.76
982.63	227.76
982.93	227.76
983.22	227.80
983.51	227.79
983.80	227.82
984.09	227.84
984.39	227.83
984.68	227.80
984.97	227.82
985.26	227.80
985.55	227.81
985.85	227.77
986.14	227.79
986.43	227.82
986.72	227.80
987.01	227.75
987.30	227.75
987.59	227.73
987.89	227.75
988.18	227.69
988.47	227.68
988.76	227.65
989.05	227.63
989.34	227.61
989.63	227.66
989.92	227.63
990.22	227.61
990.51	227.60
990.80	227.59
991.09	227.62
991.38	227.63
991.67	227.62
991.96	227.60
992.25	227.60
992.54	227.57
992.83	227.59
993.12	227.60
993.41	227.63
993.70	227.70
993.99	227.72
994.28	227.75
994.58	227.78
994.87	227.77
995.16	227.78
995.45	227.78
995.74	227.71
996.03	227.74
996.32	227.77
996.61	227.80
996.90	227.80
997.19	227.78
997.48	227.77
997.77	227.77
998.06	227.78
998.34	227.77
998.63	227.77
998.92	227.77
999.21	227.80
999.50	227.79
999.79	227.72
1000.08	227.71
1000.37	227.71
1000.66	227.68
1000.95	227.73
1001.24	227.73
1001.53	227.75
1001.82	227.76
1002.11	227.72
1002.40	227.73
1002.68	227.77
1002.97	227.90
1003.26	227.90
1003.55	227.87
1003.84	227.88
1004.13	227.95
1004.42	227.94
1004.71	227.94
1004.99	227.93
1005.28	227.96
1005.57	227.95
1005.86	227.93
1006.15	227.93
1006.44	227.91
1006.72	227.92
1007.01	227.89
1007.30	227.90
1007.59	227.89
1007.88	227.89
1008.17	227.90
1008.45	227.86
1008.74	227.79
1009.03	227.69
1009.32	227.70
1009.60	227.70
1009.89	227.70
1010.18	227.61
1010.47	227.62
1010.76	227.61
1011.04	227.61
1011.33	227.61
1011.62	227.63
1011.91	227.66
1012.19	227.66
1012.48	227.68
1012.77	227.67
1013.05	227.73
1013.34	227.72
1013.63	227.71
1013.92	227.71
1014.20	227.70
1014.49	227.70
1014.78	227.72
1015.06	227.67
1015.35	227.66
1015.64	227.68
1015.92	227.71
1016.21	227.73
1016.50	227.71
1016.78	227.74
1017.07	227.76
1017.36	227.73
1017.64	227.71
1017.93	227.72
1018.22	227.70
1018.50	227.69
1018.79	227.68
1019.08	227.62
1019.36	227.64
1019.65	227.63
1019.93	227.68
1020.22	227.71
1020.51	227.81
1020.79	227.78
1021.08	227.42
1021.36	227.38
1021.65	227.69
1021.94	227.54
1022.22	227.82
1022.51	227.52
1022.79	228.49
1023.08	227.96
1023.36	229.77
1023.65	227.18
>>>>>End Processed Spectral Data<<<<<
