SpectraSuite Data File
++++++++++++++++++++++++++++++++++++
Date: Tue Oct 06 15:41:18 EDT 2015
User: lab3
Dark Spectrum Present: No
Reference Spectrum Present: No
Number of Sampled Component Spectra: 1
Spectrometers: USB2E7196
Integration Time (usec): 66000 (USB2E7196)
Spectra Averaged: 1000 (USB2E7196)
Boxcar Smoothing: 10 (USB2E7196)
Correct for Electrical Dark: No (USB2E7196)
Strobe/Lamp Enabled: No (USB2E7196)
Correct for Detector Non-linearity: No (USB2E7196)
Correct for Stray Light: No (USB2E7196)
Number of Pixels in Processed Spectrum: 2048
>>>>>Begin Processed Spectral Data<<<<<
339.09	0.00
339.48	215.39
339.86	216.89
340.24	218.20
340.63	219.60
341.01	223.84
341.39	222.33
341.78	223.85
342.16	225.24
342.54	225.51
342.93	213.89
343.31	224.69
343.69	225.23
344.07	225.69
344.46	226.15
344.84	226.56
345.22	226.75
345.60	227.03
345.99	227.23
346.37	227.36
346.75	227.48
347.13	227.56
347.52	227.66
347.90	227.77
348.28	227.82
348.66	227.90
349.05	227.90
349.43	227.97
349.81	228.04
350.19	228.10
350.57	228.17
350.96	228.26
351.34	228.36
351.72	228.46
352.10	228.57
352.48	228.63
352.87	228.68
353.25	228.74
353.63	228.80
354.01	228.86
354.39	228.94
354.77	229.02
355.15	229.15
355.54	229.18
355.92	229.20
356.30	229.27
356.68	229.45
357.06	229.53
357.44	229.57
357.82	229.63
358.20	229.84
358.58	229.89
358.97	229.96
359.35	230.06
359.73	230.17
360.11	230.21
360.49	230.27
360.87	230.32
361.25	230.39
361.63	230.50
362.01	230.56
362.39	230.59
362.77	230.64
363.15	230.65
363.53	230.69
363.91	230.72
364.29	230.75
364.67	230.60
365.05	230.63
365.43	230.67
365.81	230.70
366.19	230.65
366.57	230.75
366.95	230.74
367.33	230.69
367.71	230.68
368.09	230.73
368.47	230.72
368.85	230.71
369.23	230.73
369.61	230.65
369.99	230.68
370.37	230.69
370.75	230.81
371.13	230.78
371.51	230.73
371.89	230.71
372.27	230.71
372.65	230.69
373.03	230.64
373.41	230.61
373.78	230.56
374.16	230.42
374.54	230.32
374.92	230.28
375.30	230.23
375.68	230.16
376.06	230.12
376.44	230.06
376.82	230.02
377.19	229.97
377.57	229.91
377.95	229.81
378.33	229.75
378.71	229.54
379.09	229.50
379.47	229.47
379.84	229.41
380.22	229.33
380.60	229.26
380.98	229.21
381.36	229.15
381.73	229.09
382.11	229.09
382.49	229.06
382.87	228.99
383.25	228.96
383.62	229.12
384.00	229.03
384.38	229.01
384.76	229.02
385.13	229.03
385.51	229.00
385.89	228.94
386.27	228.91
386.64	228.90
387.02	228.85
387.40	228.81
387.78	228.80
388.15	228.78
388.53	228.75
388.91	228.73
389.29	228.70
389.66	228.70
390.04	228.67
390.42	228.68
390.79	228.67
391.17	228.67
391.55	228.47
391.92	228.46
392.30	228.47
392.68	228.43
393.05	228.43
393.43	228.44
393.81	228.45
394.18	228.44
394.56	228.44
394.94	228.51
395.31	228.51
395.69	228.58
396.06	228.63
396.44	228.67
396.82	228.70
397.19	228.84
397.57	228.86
397.95	228.92
398.32	228.91
398.70	228.98
399.07	229.08
399.45	229.14
399.82	229.22
400.20	229.29
400.58	229.37
400.95	229.39
401.33	229.52
401.70	229.76
402.08	229.90
402.45	230.04
402.83	230.21
403.20	230.38
403.58	230.51
403.95	230.71
404.33	230.94
404.71	231.14
405.08	231.44
405.46	231.69
405.83	231.96
406.21	232.26
406.58	232.58
406.96	232.90
407.33	233.27
407.70	233.70
408.08	234.26
408.45	234.77
408.83	235.32
409.20	235.81
409.58	236.27
409.95	236.89
410.33	237.56
410.70	238.19
411.08	238.95
411.45	239.75
411.82	240.58
412.20	241.50
412.57	242.61
412.95	243.49
413.32	244.63
413.69	245.82
414.07	247.08
414.44	248.46
414.82	249.85
415.19	251.50
415.56	253.17
415.94	254.90
416.31	256.86
416.68	258.82
417.06	261.09
417.43	263.22
417.81	265.67
418.18	268.16
418.55	270.88
418.93	273.71
419.30	276.68
419.67	279.83
420.04	283.07
420.42	286.45
420.79	290.35
421.16	294.32
421.54	298.28
421.91	302.45
422.28	306.81
422.66	311.49
423.03	315.93
423.40	320.59
423.77	325.59
424.15	330.67
424.52	335.97
424.89	341.70
425.26	347.38
425.64	352.65
426.01	358.58
426.38	364.63
426.75	370.86
427.13	377.23
427.50	383.90
427.87	390.82
428.24	397.80
428.61	404.50
428.99	411.67
429.36	419.60
429.73	427.17
430.10	434.69
430.47	442.38
430.85	450.37
431.22	458.86
431.59	467.59
431.96	476.12
432.33	485.57
432.70	494.57
433.08	505.24
433.45	515.27
433.82	525.17
434.19	536.30
434.56	547.23
434.93	557.87
435.30	568.39
435.68	580.34
436.05	592.00
436.42	603.65
436.79	614.34
437.16	625.93
437.53	638.33
437.90	650.73
438.27	662.93
438.64	676.05
439.01	688.01
439.38	698.96
439.75	709.54
440.13	721.62
440.50	733.11
440.87	742.28
441.24	752.37
441.61	763.43
441.98	771.57
442.35	781.26
442.72	791.12
443.09	800.51
443.46	806.62
443.83	811.28
444.20	815.17
444.57	820.80
444.94	824.14
445.31	827.59
445.68	830.53
446.05	832.73
446.42	832.47
446.79	831.90
447.16	831.49
447.53	831.14
447.90	827.59
448.27	824.16
448.64	818.82
449.01	815.13
449.37	807.48
449.74	800.58
450.11	791.62
450.48	781.77
450.85	771.89
451.22	763.38
451.59	755.02
451.96	747.45
452.33	736.44
452.70	726.70
453.07	714.83
453.43	703.05
453.80	691.53
454.17	680.49
454.54	670.31
454.91	658.81
455.28	647.92
455.65	637.67
456.02	626.86
456.38	618.14
456.75	606.98
457.12	597.99
457.49	588.89
457.86	580.27
458.23	572.68
458.59	564.35
458.96	555.78
459.33	548.25
459.70	540.58
460.07	534.74
460.43	527.83
460.80	521.38
461.17	515.78
461.54	509.73
461.91	504.04
462.27	498.26
462.64	493.53
463.01	488.15
463.38	482.70
463.74	477.80
464.11	473.45
464.48	469.52
464.85	465.28
465.21	462.04
465.58	458.43
465.95	454.35
466.32	451.07
466.68	447.87
467.05	444.63
467.42	441.51
467.78	438.16
468.15	435.08
468.52	432.82
468.88	429.81
469.25	427.09
469.62	424.92
469.98	422.57
470.35	420.47
470.72	418.56
471.08	416.65
471.45	415.03
471.82	413.22
472.18	411.33
472.55	410.12
472.92	408.58
473.28	407.42
473.65	406.12
474.02	404.90
474.38	403.87
474.75	403.28
475.11	402.45
475.48	402.04
475.85	401.62
476.21	401.37
476.58	401.17
476.94	401.34
477.31	401.37
477.67	401.46
478.04	401.78
478.41	402.22
478.77	402.80
479.14	403.18
479.50	403.97
479.87	404.97
480.23	405.93
480.60	406.88
480.96	407.83
481.33	409.27
481.69	410.71
482.06	412.12
482.42	413.41
482.79	415.02
483.15	416.91
483.52	419.03
483.88	421.06
484.25	423.22
484.61	425.46
484.98	427.90
485.34	430.64
485.71	433.49
486.07	436.53
486.44	439.57
486.80	442.96
487.17	446.44
487.53	450.22
487.90	454.18
488.26	458.50
488.62	463.02
488.99	467.57
489.35	472.31
489.72	477.42
490.08	482.79
490.44	488.28
490.81	494.01
491.17	499.90
491.54	506.21
491.90	512.64
492.26	519.53
492.63	526.72
492.99	534.24
493.36	541.94
493.72	550.00
494.08	558.26
494.45	566.91
494.81	575.93
495.17	585.21
495.54	595.00
495.90	605.23
496.26	615.62
496.63	626.27
496.99	637.35
497.35	648.92
497.72	660.82
498.08	673.04
498.44	685.51
498.80	698.72
499.17	712.22
499.53	726.19
499.89	740.56
500.26	755.12
500.62	770.02
500.98	785.70
501.34	801.49
501.71	818.04
502.07	834.88
502.43	852.18
502.79	869.64
503.16	887.64
503.52	905.75
503.88	924.34
504.24	943.39
504.60	962.62
504.97	982.45
505.33	1002.71
505.69	1023.99
506.05	1045.46
506.41	1066.80
506.78	1088.27
507.14	1110.36
507.50	1132.86
507.86	1155.74
508.22	1178.77
508.59	1201.67
508.95	1225.61
509.31	1249.96
509.67	1274.90
510.03	1299.77
510.39	1324.60
510.75	1349.48
511.12	1374.73
511.48	1399.97
511.84	1425.24
512.20	1450.84
512.56	1477.34
512.92	1503.65
513.28	1529.39
513.64	1555.51
514.00	1581.85
514.37	1608.51
514.73	1635.10
515.09	1660.98
515.45	1687.22
515.81	1713.54
516.17	1739.53
516.53	1764.84
516.89	1790.16
517.25	1815.72
517.61	1841.02
517.97	1866.83
518.33	1891.95
518.69	1916.94
519.05	1942.36
519.41	1967.83
519.77	1993.16
520.13	2017.18
520.49	2041.35
520.85	2065.75
521.21	2089.55
521.57	2113.68
521.93	2136.79
522.29	2160.45
522.65	2183.92
523.01	2207.08
523.37	2229.55
523.73	2252.80
524.09	2275.71
524.45	2298.03
524.81	2319.75
525.17	2341.12
525.53	2361.99
525.89	2383.12
526.25	2403.86
526.61	2423.16
526.97	2442.36
527.33	2461.44
527.68	2480.11
528.04	2498.32
528.40	2515.10
528.76	2532.27
529.12	2549.00
529.48	2566.08
529.84	2580.64
530.20	2595.67
530.56	2609.67
530.91	2623.93
531.27	2637.56
531.63	2650.25
531.99	2662.70
532.35	2674.64
532.71	2686.23
533.07	2698.05
533.42	2708.06
533.78	2718.39
534.14	2729.51
534.50	2739.53
534.86	2750.02
535.21	2758.54
535.57	2766.91
535.93	2775.26
536.29	2781.89
536.65	2788.18
537.00	2793.04
537.36	2799.13
537.72	2804.18
538.08	2808.70
538.44	2812.20
538.79	2815.44
539.15	2817.37
539.51	2818.74
539.87	2819.10
540.22	2817.94
540.58	2816.97
540.94	2816.96
541.29	2815.62
541.65	2812.85
542.01	2809.81
542.37	2805.33
542.72	2802.25
543.08	2797.69
543.44	2793.23
543.79	2788.09
544.15	2782.46
544.51	2777.21
544.87	2770.76
545.22	2763.51
545.58	2756.23
545.94	2749.18
546.29	2740.56
546.65	2732.29
547.01	2723.99
547.36	2716.01
547.72	2708.23
548.07	2698.74
548.43	2688.28
548.79	2677.56
549.14	2667.32
549.50	2657.21
549.86	2646.15
550.21	2633.60
550.57	2621.98
550.92	2608.79
551.28	2596.22
551.64	2583.81
551.99	2571.02
552.35	2557.97
552.70	2544.75
553.06	2532.01
553.41	2518.77
553.77	2505.30
554.13	2491.94
554.48	2477.60
554.84	2462.73
555.19	2448.40
555.55	2433.89
555.90	2419.70
556.26	2405.95
556.61	2391.06
556.97	2375.18
557.32	2359.77
557.68	2344.72
558.03	2329.36
558.39	2314.94
558.74	2301.05
559.10	2285.42
559.45	2270.23
559.81	2255.77
560.16	2241.01
560.52	2226.06
560.87	2211.18
561.23	2196.05
561.58	2181.28
561.94	2166.12
562.29	2150.48
562.64	2134.95
563.00	2119.75
563.35	2104.62
563.71	2089.12
564.06	2073.84
564.42	2059.11
564.77	2044.38
565.12	2029.49
565.48	2014.51
565.83	1999.80
566.19	1985.07
566.54	1970.63
566.89	1955.48
567.25	1940.07
567.60	1925.57
567.96	1910.26
568.31	1894.01
568.66	1878.73
569.02	1863.96
569.37	1849.71
569.72	1836.05
570.08	1821.99
570.43	1807.33
570.78	1792.54
571.14	1777.56
571.49	1762.71
571.84	1748.20
572.20	1732.72
572.55	1717.88
572.90	1703.07
573.26	1688.15
573.61	1672.63
573.96	1657.72
574.31	1642.69
574.67	1627.76
575.02	1612.38
575.37	1597.13
575.72	1582.49
576.08	1567.76
576.43	1552.43
576.78	1537.20
577.13	1522.18
577.49	1507.42
577.84	1493.05
578.19	1478.24
578.54	1463.54
578.90	1448.81
579.25	1434.02
579.60	1420.18
579.95	1406.20
580.30	1392.12
580.66	1377.81
581.01	1363.70
581.36	1349.68
581.71	1336.37
582.06	1322.94
582.42	1309.45
582.77	1296.46
583.12	1283.68
583.47	1270.73
583.82	1258.05
584.17	1245.03
584.53	1232.12
584.88	1219.37
585.23	1206.54
585.58	1194.10
585.93	1181.67
586.28	1170.06
586.63	1158.28
586.98	1146.28
587.34	1134.54
587.69	1122.68
588.04	1111.26
588.39	1100.01
588.74	1088.36
589.09	1076.93
589.44	1065.21
589.79	1054.04
590.14	1042.94
590.49	1031.90
590.84	1021.13
591.19	1010.53
591.54	1000.07
591.89	989.19
592.25	978.75
592.60	968.18
592.95	957.81
593.30	947.67
593.65	937.33
594.00	927.24
594.35	917.96
594.70	908.08
595.05	898.81
595.40	889.28
595.75	879.65
596.10	870.62
596.45	861.52
596.80	852.80
597.15	844.11
597.50	835.44
597.85	826.94
598.19	818.42
598.54	809.96
598.89	801.94
599.24	794.30
599.59	786.51
599.94	779.30
600.29	772.06
600.64	764.69
600.99	757.24
601.34	749.97
601.69	742.24
602.04	735.34
602.39	728.31
602.74	721.46
603.08	714.78
603.43	708.06
603.78	701.34
604.13	694.71
604.48	688.13
604.83	681.72
605.18	675.42
605.53	669.28
605.87	663.09
606.22	657.02
606.57	650.91
606.92	644.66
607.27	638.45
607.62	632.48
607.96	626.75
608.31	621.36
608.66	615.96
609.01	610.81
609.36	605.63
609.70	600.39
610.05	595.23
610.40	590.17
610.75	585.14
611.10	580.28
611.44	575.46
611.79	570.71
612.14	565.90
612.49	561.16
612.83	556.66
613.18	552.19
613.53	547.72
613.88	543.40
614.22	539.41
614.57	535.33
614.92	531.32
615.27	527.43
615.61	523.49
615.96	519.57
616.31	515.63
616.65	511.84
617.00	508.15
617.35	504.49
617.70	500.87
618.04	497.33
618.39	493.91
618.74	490.69
619.08	487.46
619.43	484.31
619.78	481.13
620.12	477.96
620.47	475.03
620.82	472.11
621.16	469.19
621.51	466.32
621.85	463.47
622.20	460.71
622.55	457.90
622.89	455.12
623.24	452.53
623.59	449.98
623.93	447.51
624.28	445.16
624.62	443.02
624.97	440.87
625.32	438.61
625.66	436.31
626.01	434.00
626.35	431.81
626.70	429.58
627.04	427.54
627.39	425.43
627.73	423.40
628.08	421.47
628.43	419.53
628.77	417.52
629.12	415.66
629.46	413.82
629.81	412.12
630.15	410.37
630.50	408.60
630.84	406.89
631.19	405.22
631.53	403.61
631.88	401.83
632.22	400.16
632.57	398.74
632.91	397.30
633.26	395.94
633.60	394.57
633.95	393.30
634.29	391.89
634.64	390.55
634.98	389.06
635.32	387.73
635.67	386.51
636.01	385.29
636.36	384.12
636.70	383.06
637.05	381.83
637.39	380.74
637.73	379.64
638.08	378.60
638.42	377.59
638.77	376.46
639.11	375.31
639.45	374.16
639.80	372.98
640.14	371.90
640.49	370.79
640.83	369.67
641.17	368.57
641.52	367.54
641.86	366.53
642.20	365.68
642.55	364.63
642.89	363.60
643.23	362.68
643.58	361.83
643.92	360.83
644.26	359.89
644.61	359.01
644.95	358.09
645.29	357.09
645.64	356.07
645.98	355.14
646.32	354.33
646.66	353.49
647.01	352.66
647.35	351.90
647.69	351.11
648.04	350.41
648.38	349.64
648.72	348.90
649.06	348.14
649.41	347.33
649.75	346.59
650.09	345.90
650.43	345.14
650.78	344.36
651.12	343.62
651.46	342.90
651.80	342.18
652.14	341.51
652.49	340.91
652.83	340.25
653.17	339.56
653.51	338.90
653.85	338.33
654.20	337.70
654.54	336.97
654.88	336.27
655.22	335.63
655.56	334.95
655.90	334.31
656.25	333.68
656.59	333.06
656.93	332.48
657.27	331.94
657.61	331.33
657.95	330.77
658.29	330.20
658.64	329.66
658.98	329.05
659.32	328.48
659.66	327.91
660.00	327.39
660.34	326.86
660.68	326.28
661.02	325.63
661.36	325.03
661.70	324.49
662.05	323.96
662.39	323.42
662.73	322.97
663.07	322.55
663.41	322.09
663.75	321.58
664.09	321.07
664.43	320.45
664.77	319.93
665.11	319.32
665.45	318.80
665.79	318.29
666.13	317.76
666.47	317.22
666.81	316.64
667.15	316.05
667.49	315.57
667.83	315.15
668.17	314.71
668.51	314.28
668.85	313.87
669.19	313.49
669.53	312.96
669.87	312.41
670.21	311.86
670.55	311.35
670.89	310.96
671.23	310.52
671.57	310.14
671.91	309.76
672.25	309.43
672.58	309.09
672.92	308.64
673.26	308.27
673.60	307.87
673.94	307.49
674.28	307.13
674.62	306.74
674.96	306.29
675.30	305.89
675.64	305.44
675.97	304.95
676.31	304.47
676.65	304.04
676.99	303.71
677.33	303.26
677.67	302.85
678.01	302.34
678.34	301.91
678.68	301.49
679.02	301.04
679.36	300.59
679.70	300.12
680.04	299.73
680.37	299.33
680.71	298.95
681.05	298.59
681.39	298.16
681.73	297.70
682.06	297.26
682.40	296.86
682.74	296.50
683.08	296.21
683.42	295.81
683.75	295.46
684.09	294.97
684.43	294.57
684.77	294.15
685.10	293.77
685.44	293.38
685.78	292.96
686.12	292.56
686.45	292.15
686.79	291.70
687.13	291.29
687.46	290.82
687.80	290.40
688.14	289.91
688.48	289.49
688.81	289.07
689.15	288.73
689.49	288.31
689.82	287.87
690.16	287.34
690.50	286.90
690.83	286.45
691.17	286.02
691.51	285.61
691.84	285.25
692.18	284.81
692.52	284.35
692.85	283.91
693.19	283.53
693.52	283.10
693.86	282.69
694.20	282.25
694.53	281.85
694.87	281.41
695.21	280.99
695.54	280.58
695.88	280.14
696.21	279.64
696.55	279.21
696.88	278.78
697.22	278.35
697.56	277.97
697.89	277.52
698.23	277.11
698.56	276.66
698.90	276.24
699.23	275.81
699.57	275.41
699.90	275.00
700.24	274.55
700.58	274.16
700.91	273.82
701.25	273.60
701.58	273.29
701.92	272.96
702.25	272.60
702.59	272.20
702.92	271.82
703.26	271.44
703.59	271.05
703.93	270.82
704.26	270.47
704.60	270.09
704.93	269.73
705.26	269.33
705.60	269.01
705.93	268.59
706.27	268.28
706.60	267.97
706.94	267.69
707.27	267.30
707.61	266.93
707.94	266.52
708.27	265.99
708.61	265.55
708.94	265.13
709.28	264.77
709.61	264.40
709.94	264.08
710.28	263.75
710.61	263.45
710.95	262.96
711.28	262.73
711.61	262.37
711.95	262.07
712.28	261.76
712.61	261.41
712.95	261.19
713.28	260.93
713.61	260.56
713.95	260.19
714.28	259.89
714.61	259.57
714.95	259.26
715.28	258.95
715.61	258.67
715.95	258.41
716.28	258.11
716.61	257.87
716.95	257.56
717.28	257.27
717.61	256.97
717.94	256.71
718.28	256.31
718.61	256.06
718.94	255.75
719.27	255.48
719.61	255.24
719.94	254.93
720.27	254.59
720.60	254.34
720.94	254.09
721.27	253.85
721.60	253.63
721.93	253.37
722.27	253.17
722.60	252.94
722.93	252.66
723.26	252.44
723.59	252.16
723.93	251.96
724.26	251.75
724.59	251.51
724.92	251.29
725.25	251.12
725.59	250.88
725.92	250.69
726.25	250.47
726.58	250.25
726.91	250.01
727.24	249.81
727.57	249.58
727.91	249.33
728.24	249.14
728.57	248.90
728.90	248.71
729.23	248.46
729.56	248.33
729.89	248.15
730.22	247.94
730.55	247.73
730.89	247.52
731.22	247.30
731.55	247.10
731.88	246.93
732.21	246.71
732.54	246.51
732.87	246.33
733.20	246.17
733.53	246.00
733.86	245.84
734.19	245.64
734.52	245.51
734.85	245.48
735.18	245.29
735.51	245.18
735.84	245.04
736.17	244.93
736.50	244.66
736.83	244.70
737.16	244.54
737.49	244.39
737.82	244.23
738.15	244.10
738.48	243.95
738.81	243.77
739.14	243.61
739.47	243.44
739.80	243.28
740.13	243.14
740.46	242.96
740.79	242.79
741.12	242.64
741.45	242.45
741.78	242.19
742.11	242.07
742.44	241.87
742.77	241.74
743.10	241.56
743.43	241.42
743.75	241.10
744.08	241.23
744.41	241.07
744.74	240.92
745.07	240.74
745.40	240.66
745.73	240.61
746.06	240.48
746.39	240.37
746.71	240.22
747.04	240.07
747.37	239.95
747.70	239.84
748.03	239.72
748.36	239.64
748.68	239.52
749.01	239.36
749.34	239.25
749.67	239.13
750.00	239.05
750.33	239.05
750.65	238.94
750.98	238.57
751.31	238.48
751.64	238.39
751.97	238.39
752.29	238.26
752.62	238.06
752.95	237.96
753.28	237.82
753.60	237.71
753.93	237.65
754.26	237.57
754.59	237.41
754.91	237.28
755.24	237.17
755.57	237.06
755.90	236.96
756.22	236.84
756.55	236.71
756.88	236.56
757.20	236.35
757.53	236.21
757.86	236.11
758.19	236.03
758.51	235.92
758.84	235.73
759.17	235.63
759.49	235.54
759.82	235.53
760.15	235.46
760.47	235.37
760.80	235.22
761.13	235.16
761.45	235.09
761.78	235.01
762.11	234.92
762.43	234.82
762.76	234.74
763.08	234.69
763.41	234.62
763.74	234.57
764.06	234.49
764.39	234.42
764.71	234.33
765.04	234.24
765.37	234.15
765.69	234.08
766.02	234.00
766.34	233.91
766.67	233.78
767.00	233.75
767.32	233.78
767.65	233.83
767.97	233.74
768.30	233.68
768.62	233.62
768.95	233.54
769.27	233.49
769.60	233.45
769.92	233.35
770.25	233.25
770.57	233.16
770.90	233.10
771.22	233.02
771.55	232.97
771.87	232.92
772.20	232.84
772.52	232.94
772.85	233.11
773.17	233.07
773.50	233.02
773.82	232.94
774.15	232.80
774.47	232.64
774.80	232.57
775.12	232.52
775.45	232.47
775.77	232.44
776.09	232.40
776.42	232.35
776.74	232.36
777.07	232.31
777.39	232.29
777.72	232.24
778.04	232.24
778.36	232.19
778.69	232.16
779.01	232.14
779.33	231.94
779.66	231.70
779.98	231.64
780.31	231.61
780.63	231.64
780.95	231.64
781.28	231.60
781.60	231.57
781.92	231.53
782.25	231.49
782.57	231.45
782.89	231.41
783.22	231.37
783.54	231.30
783.86	231.30
784.19	231.26
784.51	231.29
784.83	231.23
785.16	231.19
785.48	231.17
785.80	231.14
786.12	231.13
786.45	231.09
786.77	231.08
787.09	231.04
787.42	230.96
787.74	230.92
788.06	230.91
788.38	230.86
788.71	230.82
789.03	230.80
789.35	230.79
789.67	230.74
789.99	230.74
790.32	230.69
790.64	230.68
790.96	230.83
791.28	230.75
791.61	230.72
791.93	230.70
792.25	230.65
792.57	230.75
792.89	230.71
793.21	230.70
793.54	230.66
793.86	230.62
794.18	230.60
794.50	230.54
794.82	230.53
795.14	230.53
795.47	230.55
795.79	230.52
796.11	230.45
796.43	230.44
796.75	230.40
797.07	230.39
797.39	230.35
797.71	230.17
798.04	230.15
798.36	230.13
798.68	230.10
799.00	230.09
799.32	229.99
799.64	229.99
799.96	229.96
800.28	229.97
800.60	229.95
800.92	229.94
801.24	229.90
801.56	229.89
801.89	229.87
802.21	229.85
802.53	229.81
802.85	229.83
803.17	229.90
803.49	229.84
803.81	229.81
804.13	229.77
804.45	229.73
804.77	229.73
805.09	229.71
805.41	229.68
805.73	229.63
806.05	229.56
806.37	229.53
806.69	229.50
807.01	229.46
807.33	229.46
807.65	229.39
807.97	229.46
808.28	229.42
808.60	229.40
808.92	229.37
809.24	229.46
809.56	229.41
809.88	229.33
810.20	229.33
810.52	229.36
810.84	229.33
811.16	229.30
811.48	229.28
811.80	229.32
812.12	229.31
812.43	229.34
812.75	229.33
813.07	229.30
813.39	229.29
813.71	229.26
814.03	229.23
814.35	229.23
814.67	229.15
814.98	229.13
815.30	229.11
815.62	229.06
815.94	228.93
816.26	228.94
816.58	228.89
816.89	228.90
817.21	228.84
817.53	228.84
817.85	228.84
818.17	228.83
818.48	228.75
818.80	228.79
819.12	228.75
819.44	228.72
819.76	228.69
820.07	228.68
820.39	228.67
820.71	228.68
821.03	228.68
821.34	228.65
821.66	228.67
821.98	228.68
822.30	228.68
822.61	228.79
822.93	228.76
823.25	228.76
823.57	228.75
823.88	228.76
824.20	228.74
824.52	228.76
824.83	228.75
825.15	228.72
825.47	228.70
825.79	228.72
826.10	228.71
826.42	228.71
826.74	228.70
827.05	228.69
827.37	228.69
827.69	228.67
828.00	228.68
828.32	228.66
828.64	228.62
828.95	228.72
829.27	228.65
829.58	228.62
829.90	228.64
830.22	228.64
830.53	228.60
830.85	228.58
831.17	228.52
831.48	228.51
831.80	228.51
832.11	228.50
832.43	228.44
832.75	228.42
833.06	228.52
833.38	228.48
833.69	228.47
834.01	228.46
834.32	228.45
834.64	228.43
834.96	228.41
835.27	228.41
835.59	228.32
835.90	228.28
836.22	228.28
836.53	228.23
836.85	228.20
837.16	228.38
837.48	228.37
837.79	228.42
838.11	228.43
838.42	228.42
838.74	228.43
839.05	228.41
839.37	228.40
839.68	228.29
840.00	228.27
840.31	228.29
840.63	228.26
840.94	228.25
841.26	228.22
841.57	228.21
841.88	228.23
842.20	228.21
842.51	228.18
842.83	228.18
843.14	228.34
843.46	228.33
843.77	228.22
844.08	228.20
844.40	228.16
844.71	228.13
845.03	228.10
845.34	228.08
845.65	228.09
845.97	228.09
846.28	228.08
846.60	228.10
846.91	228.06
847.22	228.05
847.54	228.08
847.85	228.09
848.16	228.08
848.48	228.04
848.79	228.10
849.10	228.12
849.42	228.12
849.73	227.95
850.04	227.94
850.36	227.88
850.67	227.91
850.98	227.91
851.30	227.93
851.61	227.94
851.92	227.93
852.23	227.96
852.55	227.97
852.86	227.98
853.17	227.99
853.49	228.02
853.80	228.06
854.11	228.07
854.42	228.09
854.74	228.07
855.05	228.08
855.36	228.00
855.67	228.00
855.99	228.00
856.30	228.22
856.61	228.21
856.92	228.21
857.23	228.22
857.55	228.20
857.86	228.18
858.17	228.21
858.48	228.19
858.79	228.16
859.11	228.17
859.42	228.16
859.73	228.13
860.04	228.11
860.35	228.05
860.66	228.00
860.98	228.00
861.29	228.01
861.60	227.99
861.91	228.03
862.22	228.01
862.53	227.99
862.84	227.77
863.16	227.83
863.47	227.80
863.78	227.77
864.09	227.78
864.40	227.79
864.71	227.78
865.02	227.81
865.33	227.78
865.64	227.76
865.95	227.76
866.27	227.87
866.58	227.86
866.89	227.89
867.20	227.89
867.51	227.86
867.82	227.85
868.13	227.90
868.44	227.86
868.75	227.88
869.06	227.88
869.37	227.90
869.68	227.85
869.99	227.87
870.30	227.88
870.61	227.90
870.92	227.88
871.23	227.85
871.54	227.86
871.85	227.91
872.16	227.93
872.47	227.92
872.78	227.82
873.09	227.84
873.40	227.81
873.71	227.81
874.02	227.82
874.33	227.81
874.64	227.77
874.95	227.80
875.26	227.75
875.56	227.74
875.87	227.72
876.18	227.72
876.49	227.90
876.80	227.87
877.11	227.84
877.42	227.85
877.73	227.86
878.04	227.82
878.35	227.81
878.66	227.82
878.96	227.82
879.27	227.82
879.58	227.80
879.89	227.79
880.20	227.84
880.51	227.83
880.82	227.83
881.12	227.83
881.43	227.80
881.74	227.79
882.05	227.78
882.36	227.80
882.67	227.82
882.97	227.62
883.28	227.62
883.59	227.62
883.90	227.63
884.21	227.66
884.51	227.65
884.82	227.62
885.13	227.61
885.44	227.61
885.74	227.61
886.05	227.60
886.36	227.60
886.67	227.53
886.98	227.62
887.28	227.64
887.59	227.64
887.90	227.65
888.20	227.64
888.51	227.68
888.82	227.65
889.13	227.66
889.43	227.80
889.74	227.79
890.05	227.80
890.35	227.78
890.66	227.75
890.97	227.73
891.28	227.71
891.58	227.71
891.89	227.71
892.20	227.69
892.50	227.68
892.81	227.67
893.12	227.67
893.42	227.58
893.73	227.57
894.04	227.57
894.34	227.59
894.65	227.58
894.95	227.56
895.26	227.58
895.57	227.64
895.87	227.47
896.18	227.49
896.48	227.50
896.79	227.49
897.10	227.52
897.40	227.53
897.71	227.56
898.01	227.53
898.32	227.55
898.63	227.54
898.93	227.56
899.24	227.56
899.54	227.56
899.85	227.55
900.15	227.54
900.46	227.55
900.76	227.55
901.07	227.56
901.38	227.55
901.68	227.56
901.99	227.48
902.29	227.50
902.60	227.49
902.90	227.47
903.21	227.47
903.51	227.45
903.82	227.49
904.12	227.49
904.43	227.51
904.73	227.50
905.03	227.52
905.34	227.69
905.64	227.69
905.95	227.68
906.25	227.69
906.56	227.67
906.86	227.67
907.17	227.66
907.47	227.66
907.77	227.65
908.08	227.62
908.38	227.62
908.69	227.63
908.99	227.65
909.30	227.67
909.60	227.68
909.90	227.67
910.21	227.62
910.51	227.60
910.81	227.60
911.12	227.60
911.42	227.60
911.73	227.41
912.03	227.43
912.33	227.47
912.64	227.46
912.94	227.46
913.24	227.43
913.55	227.41
913.85	227.40
914.15	227.44
914.46	227.46
914.76	227.44
915.06	227.43
915.37	227.40
915.67	227.38
915.97	227.38
916.27	227.37
916.58	227.38
916.88	227.38
917.18	227.37
917.49	227.50
917.79	227.49
918.09	227.52
918.39	227.55
918.70	227.55
919.00	227.56
919.30	227.63
919.60	227.62
919.91	227.61
920.21	227.62
920.51	227.57
920.81	227.56
921.12	227.59
921.42	227.60
921.72	227.61
922.02	227.62
922.32	227.63
922.63	227.63
922.93	227.72
923.23	227.74
923.53	227.71
923.83	227.59
924.13	227.60
924.44	227.60
924.74	227.63
925.04	227.65
925.34	227.65
925.64	227.57
925.94	227.58
926.24	227.68
926.55	227.66
926.85	227.68
927.15	227.68
927.45	227.67
927.75	227.66
928.05	227.66
928.35	227.64
928.65	227.69
928.95	227.69
929.26	227.61
929.56	227.64
929.86	227.65
930.16	227.64
930.46	227.63
930.76	227.64
931.06	227.55
931.36	227.50
931.66	227.52
931.96	227.55
932.26	227.55
932.56	227.47
932.86	227.49
933.16	227.49
933.46	227.47
933.76	227.45
934.06	227.49
934.36	227.54
934.66	227.52
934.96	227.49
935.26	227.49
935.56	227.52
935.86	227.46
936.16	227.44
936.46	227.42
936.76	227.41
937.06	227.39
937.36	227.39
937.66	227.40
937.96	227.38
938.26	227.34
938.56	227.34
938.86	227.35
939.16	227.40
939.46	227.41
939.76	227.43
940.06	227.43
940.35	227.40
940.65	227.32
940.95	227.34
941.25	227.30
941.55	227.28
941.85	227.26
942.15	227.31
942.45	227.37
942.75	227.37
943.04	227.39
943.34	227.41
943.64	227.40
943.94	227.37
944.24	227.36
944.54	227.38
944.84	227.39
945.13	227.36
945.43	227.32
945.73	227.31
946.03	227.30
946.33	227.27
946.62	227.25
946.92	227.25
947.22	227.26
947.52	227.28
947.82	227.31
948.11	227.28
948.41	227.25
948.71	227.20
949.01	227.22
949.31	227.20
949.60	227.19
949.90	227.23
950.20	227.23
950.50	227.23
950.79	227.22
951.09	227.23
951.39	227.22
951.69	227.20
951.98	227.24
952.28	227.25
952.58	227.25
952.87	227.25
953.17	227.28
953.47	227.25
953.76	227.24
954.06	227.21
954.36	227.19
954.66	227.19
954.95	227.23
955.25	227.24
955.55	227.25
955.84	227.22
956.14	227.23
956.44	227.24
956.73	227.21
957.03	227.22
957.32	227.22
957.62	227.21
957.92	227.25
958.21	227.23
958.51	227.42
958.81	227.46
959.10	227.47
959.40	227.51
959.69	227.52
959.99	227.55
960.29	227.55
960.58	227.55
960.88	227.61
961.17	227.60
961.47	227.61
961.76	227.59
962.06	227.61
962.36	227.59
962.65	227.61
962.95	227.63
963.24	227.62
963.54	227.62
963.83	227.65
964.13	227.64
964.42	227.63
964.72	227.49
965.01	227.49
965.31	227.47
965.60	227.42
965.90	227.54
966.19	227.50
966.49	227.50
966.78	227.50
967.08	227.47
967.37	227.46
967.67	227.43
967.96	227.47
968.26	227.46
968.55	227.49
968.85	227.47
969.14	227.46
969.43	227.46
969.73	227.44
970.02	227.43
970.32	227.42
970.61	227.38
970.91	227.33
971.20	227.29
971.49	227.28
971.79	227.30
972.08	227.17
972.38	227.18
972.67	227.17
972.96	227.20
973.26	227.17
973.55	227.22
973.85	227.21
974.14	227.18
974.43	227.19
974.73	227.16
975.02	227.15
975.31	227.15
975.61	227.15
975.90	227.13
976.19	227.12
976.49	227.14
976.78	227.16
977.07	227.15
977.37	227.18
977.66	227.20
977.95	227.18
978.24	227.19
978.54	227.23
978.83	227.23
979.12	227.21
979.42	227.22
979.71	227.19
980.00	227.20
980.29	227.20
980.59	227.17
980.88	227.22
981.17	227.22
981.46	227.23
981.76	227.22
982.05	227.28
982.34	227.28
982.63	227.27
982.93	227.27
983.22	227.32
983.51	227.33
983.80	227.34
984.09	227.38
984.39	227.37
984.68	227.34
984.97	227.34
985.26	227.34
985.55	227.35
985.85	227.31
986.14	227.33
986.43	227.35
986.72	227.34
987.01	227.29
987.30	227.29
987.59	227.26
987.89	227.28
988.18	227.22
988.47	227.20
988.76	227.20
989.05	227.19
989.34	227.16
989.63	227.20
989.92	227.17
990.22	227.14
990.51	227.14
990.80	227.13
991.09	227.15
991.38	227.18
991.67	227.15
991.96	227.14
992.25	227.14
992.54	227.11
992.83	227.11
993.12	227.11
993.41	227.14
993.70	227.22
993.99	227.25
994.28	227.28
994.58	227.32
994.87	227.31
995.16	227.31
995.45	227.29
995.74	227.23
996.03	227.25
996.32	227.28
996.61	227.32
996.90	227.32
997.19	227.30
997.48	227.30
997.77	227.28
998.06	227.30
998.34	227.29
998.63	227.29
998.92	227.31
999.21	227.34
999.50	227.34
999.79	227.28
1000.08	227.28
1000.37	227.28
1000.66	227.24
1000.95	227.27
1001.24	227.29
1001.53	227.32
1001.82	227.32
1002.11	227.29
1002.40	227.29
1002.68	227.34
1002.97	227.46
1003.26	227.44
1003.55	227.41
1003.84	227.43
1004.13	227.48
1004.42	227.48
1004.71	227.49
1004.99	227.48
1005.28	227.51
1005.57	227.50
1005.86	227.48
1006.15	227.46
1006.44	227.43
1006.72	227.46
1007.01	227.44
1007.30	227.43
1007.59	227.40
1007.88	227.41
1008.17	227.42
1008.45	227.38
1008.74	227.31
1009.03	227.22
1009.32	227.22
1009.60	227.23
1009.89	227.20
1010.18	227.14
1010.47	227.13
1010.76	227.12
1011.04	227.12
1011.33	227.12
1011.62	227.12
1011.91	227.14
1012.19	227.14
1012.48	227.16
1012.77	227.15
1013.05	227.20
1013.34	227.20
1013.63	227.20
1013.92	227.20
1014.20	227.18
1014.49	227.20
1014.78	227.22
1015.06	227.18
1015.35	227.18
1015.64	227.20
1015.92	227.24
1016.21	227.25
1016.50	227.25
1016.78	227.27
1017.07	227.29
1017.36	227.27
1017.64	227.25
1017.93	227.27
1018.22	227.25
1018.50	227.24
1018.79	227.23
1019.08	227.17
1019.36	227.20
1019.65	227.18
1019.93	227.24
1020.22	227.27
1020.51	227.36
1020.79	227.32
1021.08	226.97
1021.36	226.87
1021.65	227.02
1021.94	227.03
1022.22	227.59
1022.51	226.91
1022.79	228.10
1023.08	227.52
1023.36	229.35
1023.65	226.79
>>>>>End Processed Spectral Data<<<<<
