SpectraSuite Data File
++++++++++++++++++++++++++++++++++++
Date: Tue Oct 06 12:06:49 EDT 2015
User: lab3
Dark Spectrum Present: No
Reference Spectrum Present: No
Number of Sampled Component Spectra: 1
Spectrometers: USB2E7196
Integration Time (usec): 66000 (USB2E7196)
Spectra Averaged: 400 (USB2E7196)
Boxcar Smoothing: 10 (USB2E7196)
Correct for Electrical Dark: No (USB2E7196)
Strobe/Lamp Enabled: No (USB2E7196)
Correct for Detector Non-linearity: No (USB2E7196)
Correct for Stray Light: No (USB2E7196)
Number of Pixels in Processed Spectrum: 2048
>>>>>Begin Processed Spectral Data<<<<<
339.09	0.00
339.48	217.04
339.86	218.12
340.24	219.70
340.63	220.81
341.01	225.07
341.39	223.91
341.78	224.98
342.16	226.50
342.54	226.83
342.93	215.24
343.31	226.10
343.69	226.62
344.07	227.09
344.46	227.53
344.84	227.94
345.22	228.13
345.60	228.38
345.99	228.59
346.37	228.73
346.75	228.86
347.13	228.94
347.52	229.02
347.90	229.12
348.28	229.16
348.66	229.22
349.05	229.20
349.43	229.28
349.81	229.35
350.19	229.41
350.57	229.48
350.96	229.56
351.34	229.67
351.72	229.77
352.10	229.88
352.48	229.95
352.87	230.01
353.25	230.08
353.63	230.15
354.01	230.22
354.39	230.30
354.77	230.37
355.15	230.47
355.54	230.51
355.92	230.53
356.30	230.60
356.68	230.79
357.06	230.87
357.44	230.89
357.82	230.95
358.20	231.18
358.58	231.24
358.97	231.31
359.35	231.39
359.73	231.48
360.11	231.53
360.49	231.59
360.87	231.63
361.25	231.71
361.63	231.78
362.01	231.84
362.39	231.86
362.77	231.91
363.15	231.92
363.53	231.97
363.91	232.00
364.29	232.03
364.67	231.88
365.05	231.90
365.43	231.95
365.81	231.99
366.19	231.92
366.57	231.99
366.95	231.99
367.33	231.96
367.71	231.96
368.09	232.01
368.47	232.00
368.85	231.99
369.23	232.01
369.61	231.95
369.99	232.00
370.37	232.01
370.75	232.12
371.13	232.12
371.51	232.05
371.89	232.04
372.27	232.03
372.65	232.02
373.03	232.00
373.41	231.96
373.78	231.89
374.16	231.78
374.54	231.69
374.92	231.64
375.30	231.61
375.68	231.52
376.06	231.49
376.44	231.44
376.82	231.41
377.19	231.36
377.57	231.30
377.95	231.20
378.33	231.12
378.71	230.91
379.09	230.85
379.47	230.84
379.84	230.78
380.22	230.70
380.60	230.62
380.98	230.56
381.36	230.50
381.73	230.44
382.11	230.42
382.49	230.39
382.87	230.34
383.25	230.29
383.62	230.47
384.00	230.38
384.38	230.34
384.76	230.34
385.13	230.34
385.51	230.30
385.89	230.24
386.27	230.23
386.64	230.25
387.02	230.21
387.40	230.17
387.78	230.14
388.15	230.14
388.53	230.13
388.91	230.11
389.29	230.07
389.66	230.08
390.04	230.03
390.42	230.03
390.79	230.01
391.17	230.00
391.55	229.78
391.92	229.78
392.30	229.81
392.68	229.75
393.05	229.75
393.43	229.76
393.81	229.79
394.18	229.76
394.56	229.77
394.94	229.83
395.31	229.84
395.69	229.93
396.06	229.96
396.44	229.98
396.82	229.99
397.19	230.13
397.57	230.15
397.95	230.24
398.32	230.24
398.70	230.32
399.07	230.43
399.45	230.48
399.82	230.56
400.20	230.62
400.58	230.72
400.95	230.74
401.33	230.87
401.70	231.11
402.08	231.25
402.45	231.38
402.83	231.54
403.20	231.72
403.58	231.85
403.95	232.06
404.33	232.31
404.71	232.52
405.08	232.82
405.46	233.07
405.83	233.34
406.21	233.65
406.58	233.97
406.96	234.30
407.33	234.69
407.70	235.11
408.08	235.66
408.45	236.15
408.83	236.72
409.20	237.23
409.58	237.67
409.95	238.31
410.33	238.98
410.70	239.63
411.08	240.37
411.45	241.17
411.82	241.99
412.20	242.90
412.57	244.02
412.95	244.92
413.32	246.08
413.69	247.27
414.07	248.52
414.44	249.90
414.82	251.32
415.19	252.99
415.56	254.67
415.94	256.43
416.31	258.40
416.68	260.36
417.06	262.64
417.43	264.76
417.81	267.21
418.18	269.73
418.55	272.48
418.93	275.33
419.30	278.32
419.67	281.47
420.04	284.75
420.42	288.16
420.79	292.08
421.16	296.05
421.54	300.08
421.91	304.28
422.28	308.63
422.66	313.33
423.03	317.78
423.40	322.49
423.77	327.54
424.15	332.69
424.52	338.01
424.89	343.78
425.26	349.50
425.64	354.82
426.01	360.81
426.38	366.91
426.75	373.19
427.13	379.62
427.50	386.36
427.87	393.32
428.24	400.32
428.61	407.03
428.99	414.28
429.36	422.28
429.73	429.95
430.10	437.57
430.47	445.37
430.85	453.45
431.22	462.06
431.59	470.87
431.96	479.47
432.33	489.07
432.70	498.18
433.08	508.99
433.45	519.21
433.82	529.22
434.19	540.44
434.56	551.46
434.93	562.12
435.30	572.71
435.68	584.77
436.05	596.53
436.42	608.35
436.79	619.12
437.16	630.70
437.53	643.16
437.90	655.70
438.27	667.90
438.64	681.00
439.01	692.91
439.38	703.98
439.75	714.61
440.13	726.69
440.50	738.21
440.87	747.38
441.24	757.39
441.61	768.42
441.98	776.48
442.35	786.08
442.72	795.87
443.09	805.26
443.46	811.48
443.83	816.05
444.20	819.72
444.57	825.26
444.94	828.66
445.31	832.00
445.68	834.77
446.05	836.86
446.42	836.50
446.79	835.95
447.16	835.37
447.53	834.99
447.90	831.36
448.27	827.85
448.64	822.39
449.01	818.71
449.37	811.05
449.74	804.22
450.11	795.28
450.48	785.47
450.85	775.53
451.22	766.79
451.59	758.40
451.96	750.97
452.33	740.02
452.70	730.18
453.07	718.35
453.43	706.60
453.80	695.14
454.17	684.22
454.54	674.01
454.91	662.46
455.28	651.51
455.65	641.21
456.02	630.34
456.38	621.59
456.75	610.30
457.12	601.21
457.49	591.98
457.86	583.35
458.23	575.75
458.59	567.36
458.96	558.83
459.33	551.33
459.70	543.66
460.07	537.72
460.43	530.77
460.80	524.28
461.17	518.56
461.54	512.48
461.91	506.78
462.27	500.98
462.64	496.27
463.01	490.86
463.38	485.45
463.74	480.56
464.11	476.25
464.48	472.36
464.85	468.13
465.21	464.88
465.58	461.24
465.95	457.15
466.32	453.86
466.68	450.62
467.05	447.33
467.42	444.13
467.78	440.78
468.15	437.68
468.52	435.37
468.88	432.39
469.25	429.64
469.62	427.40
469.98	424.99
470.35	422.84
470.72	420.91
471.08	418.91
471.45	417.27
471.82	415.39
472.18	413.45
472.55	412.19
472.92	410.65
473.28	409.46
473.65	408.12
474.02	406.94
474.38	405.91
474.75	405.31
475.11	404.42
475.48	404.00
475.85	403.57
476.21	403.33
476.58	403.16
476.94	403.35
477.31	403.43
477.67	403.59
478.04	403.92
478.41	404.33
478.77	404.96
479.14	405.31
479.50	406.10
479.87	407.09
480.23	408.10
480.60	409.07
480.96	410.01
481.33	411.47
481.69	412.87
482.06	414.31
482.42	415.62
482.79	417.22
483.15	419.14
483.52	421.29
483.88	423.39
484.25	425.63
484.61	427.92
484.98	430.37
485.34	433.13
485.71	436.00
486.07	439.11
486.44	442.15
486.80	445.57
487.17	449.05
487.53	452.85
487.90	456.82
488.26	461.18
488.62	465.78
488.99	470.37
489.35	475.26
489.72	480.44
490.08	485.91
490.44	491.53
490.81	497.27
491.17	503.16
491.54	509.47
491.90	515.92
492.26	522.78
492.63	529.97
492.99	537.45
493.36	545.18
493.72	553.33
494.08	561.64
494.45	570.35
494.81	579.47
495.17	588.85
495.54	598.71
495.90	608.95
496.26	619.48
496.63	630.25
496.99	641.39
497.35	652.97
497.72	664.93
498.08	677.30
498.44	689.95
498.80	703.39
499.17	717.12
499.53	731.32
499.89	745.90
500.26	760.60
500.62	775.57
500.98	791.25
501.34	807.07
501.71	823.61
502.07	840.45
502.43	857.70
502.79	875.08
503.16	892.95
503.52	911.07
503.88	929.63
504.24	948.63
504.60	967.88
504.97	987.60
505.33	1007.74
505.69	1028.86
506.05	1050.05
506.41	1071.14
506.78	1092.59
507.14	1114.74
507.50	1137.38
507.86	1160.39
508.22	1183.50
508.59	1206.45
508.95	1230.24
509.31	1254.47
509.67	1279.32
510.03	1304.02
510.39	1329.12
510.75	1354.21
511.12	1379.36
511.48	1404.55
511.84	1429.73
512.20	1455.32
512.56	1481.34
512.92	1507.13
513.28	1532.61
513.64	1558.38
514.00	1584.21
514.37	1610.16
514.73	1635.91
515.09	1661.07
515.45	1686.50
515.81	1711.98
516.17	1737.50
516.53	1762.34
516.89	1787.07
517.25	1811.87
517.61	1836.50
517.97	1861.25
518.33	1885.57
518.69	1909.70
519.05	1934.01
519.41	1958.28
519.77	1982.45
520.13	2006.28
520.49	2029.90
520.85	2053.46
521.21	2076.89
521.57	2100.36
521.93	2122.81
522.29	2145.63
522.65	2168.01
523.01	2190.13
523.37	2211.43
523.73	2233.07
524.09	2254.81
524.45	2276.60
524.81	2297.36
525.17	2317.97
525.53	2337.83
525.89	2358.00
526.25	2377.75
526.61	2396.28
526.97	2415.00
527.33	2433.13
527.68	2450.39
528.04	2466.98
528.40	2482.61
528.76	2498.66
529.12	2513.66
529.48	2528.95
529.84	2542.98
530.20	2558.04
530.56	2571.98
530.91	2585.77
531.27	2598.62
531.63	2610.53
531.99	2622.06
532.35	2632.23
532.71	2642.31
533.07	2652.59
533.42	2661.44
533.78	2670.89
534.14	2680.52
534.50	2688.75
534.86	2697.16
535.21	2703.61
535.57	2710.33
535.93	2717.31
536.29	2723.20
536.65	2729.15
537.00	2733.16
537.36	2737.51
537.72	2740.13
538.08	2742.46
538.44	2744.02
538.79	2745.92
539.15	2747.09
539.51	2747.63
539.87	2748.72
540.22	2747.87
540.58	2747.67
540.94	2746.83
541.29	2744.73
541.65	2741.14
542.01	2737.64
542.37	2733.12
542.72	2730.37
543.08	2726.16
543.44	2721.75
543.79	2715.55
544.15	2709.32
544.51	2703.81
544.87	2696.42
545.22	2688.56
545.58	2680.93
545.94	2674.10
546.29	2665.43
546.65	2656.20
547.01	2647.05
547.36	2637.60
547.72	2628.05
548.07	2617.23
548.43	2606.30
548.79	2594.35
549.14	2583.40
549.50	2572.24
549.86	2560.58
550.21	2547.12
550.57	2534.96
550.92	2521.16
551.28	2508.16
551.64	2495.33
551.99	2482.57
552.35	2469.91
552.70	2456.95
553.06	2444.34
553.41	2430.56
553.77	2416.63
554.13	2402.90
554.48	2388.47
554.84	2373.46
555.19	2359.43
555.55	2344.73
555.90	2330.24
556.26	2316.58
556.61	2302.23
556.97	2287.02
557.32	2272.09
557.68	2257.39
558.03	2242.19
558.39	2227.72
558.74	2213.47
559.10	2197.38
559.45	2181.74
559.81	2166.80
560.16	2151.67
560.52	2136.22
560.87	2121.52
561.23	2106.36
561.58	2091.55
561.94	2076.03
562.29	2060.80
562.64	2045.42
563.00	2030.24
563.35	2015.57
563.71	2000.76
564.06	1985.72
564.42	1971.10
564.77	1956.63
565.12	1942.50
565.48	1928.28
565.83	1913.78
566.19	1899.35
566.54	1885.38
566.89	1870.34
567.25	1854.91
567.60	1840.63
567.96	1825.80
568.31	1810.48
568.66	1795.98
569.02	1781.50
569.37	1767.28
569.72	1753.28
570.08	1739.20
570.43	1724.97
570.78	1710.08
571.14	1695.21
571.49	1680.64
571.84	1666.95
572.20	1651.95
572.55	1637.23
572.90	1622.00
573.26	1606.93
573.61	1591.64
573.96	1576.90
574.31	1562.77
574.67	1549.10
575.02	1534.59
575.37	1519.90
575.72	1505.19
576.08	1490.83
576.43	1476.47
576.78	1462.14
577.13	1447.97
577.49	1433.81
577.84	1419.62
578.19	1405.62
578.54	1391.71
578.90	1377.71
579.25	1363.18
579.60	1349.79
579.95	1336.39
580.30	1323.22
580.66	1309.98
581.01	1296.97
581.36	1283.86
581.71	1270.72
582.06	1257.61
582.42	1244.78
582.77	1232.26
583.12	1219.89
583.47	1207.41
583.82	1195.13
584.17	1182.84
584.53	1170.60
584.88	1158.77
585.23	1146.73
585.58	1135.00
585.93	1123.20
586.28	1112.02
586.63	1100.78
586.98	1089.47
587.34	1078.44
587.69	1067.22
588.04	1056.39
588.39	1045.68
588.74	1034.85
589.09	1024.41
589.44	1013.48
589.79	1003.01
590.14	992.73
590.49	982.65
590.84	972.79
591.19	962.98
591.54	953.22
591.89	943.24
592.25	933.28
592.60	923.37
592.95	913.64
593.30	904.03
593.65	894.33
594.00	884.87
594.35	876.01
594.70	866.71
595.05	858.08
595.40	849.29
595.75	840.34
596.10	831.87
596.45	823.29
596.80	815.11
597.15	806.86
597.50	798.66
597.85	790.73
598.19	782.78
598.54	774.84
598.89	767.08
599.24	759.72
599.59	752.46
599.94	745.65
600.29	738.61
600.64	731.67
600.99	724.71
601.34	717.95
601.69	710.65
602.04	703.96
602.39	697.34
602.74	690.90
603.08	684.56
603.43	678.31
603.78	672.08
604.13	666.02
604.48	659.97
604.83	654.11
605.18	648.23
605.53	642.50
605.87	636.65
606.22	631.01
606.57	625.36
606.92	619.61
607.27	613.99
607.62	608.70
607.96	603.51
608.31	598.58
608.66	593.54
609.01	588.72
609.36	584.09
609.70	579.37
610.05	574.62
610.40	569.99
610.75	565.29
611.10	560.92
611.44	556.48
611.79	552.15
612.14	547.82
612.49	543.47
612.83	539.32
613.18	535.41
613.53	531.53
613.88	527.62
614.22	523.94
614.57	520.16
614.92	516.44
615.27	512.78
615.61	509.14
615.96	505.60
616.31	502.10
616.65	498.56
617.00	495.15
617.35	491.83
617.70	488.60
618.04	485.49
618.39	482.32
618.74	479.28
619.08	476.15
619.43	473.11
619.78	470.21
620.12	467.31
620.47	464.57
620.82	461.81
621.16	459.14
621.51	456.56
621.85	454.03
622.20	451.58
622.55	449.13
622.89	446.71
623.24	444.44
623.59	442.16
623.93	439.96
624.28	437.82
624.62	435.91
624.97	433.94
625.32	431.83
625.66	429.72
626.01	427.68
626.35	425.84
626.70	423.90
627.04	422.14
627.39	420.27
627.73	418.46
628.08	416.72
628.43	415.03
628.77	413.32
629.12	411.71
629.46	410.06
629.81	408.53
630.15	406.95
630.50	405.36
630.84	403.87
631.19	402.44
631.53	401.04
631.88	399.44
632.22	397.94
632.57	396.76
632.91	395.56
633.26	394.37
633.60	393.11
633.95	391.99
634.29	390.71
634.64	389.52
634.98	388.17
635.32	387.02
635.67	385.93
636.01	384.84
636.36	383.78
636.70	382.86
637.05	381.76
637.39	380.79
637.73	379.84
638.08	378.91
638.42	377.97
638.77	376.95
639.11	375.88
639.45	374.90
639.80	373.87
640.14	372.86
640.49	371.86
640.83	370.92
641.17	369.94
641.52	369.02
641.86	368.13
642.20	367.40
642.55	366.48
642.89	365.58
643.23	364.69
643.58	363.90
643.92	362.94
644.26	362.07
644.61	361.27
644.95	360.44
645.29	359.59
645.64	358.68
645.98	357.84
646.32	357.12
646.66	356.33
647.01	355.51
647.35	354.79
647.69	354.04
648.04	353.31
648.38	352.56
648.72	351.87
649.06	351.20
649.41	350.45
649.75	349.73
650.09	349.08
650.43	348.43
650.78	347.70
651.12	347.02
651.46	346.36
651.80	345.71
652.14	345.05
652.49	344.42
652.83	343.76
653.17	343.13
653.51	342.48
653.85	341.94
654.20	341.36
654.54	340.70
654.88	340.04
655.22	339.44
655.56	338.76
655.90	338.10
656.25	337.46
656.59	336.85
656.93	336.29
657.27	335.72
657.61	335.08
657.95	334.53
658.29	333.97
658.64	333.49
658.98	332.91
659.32	332.34
659.66	331.78
660.00	331.27
660.34	330.70
660.68	330.16
661.02	329.52
661.36	328.93
661.70	328.36
662.05	327.87
662.39	327.38
662.73	326.96
663.07	326.55
663.41	326.06
663.75	325.50
664.09	324.97
664.43	324.37
664.77	323.88
665.11	323.30
665.45	322.76
665.79	322.19
666.13	321.62
666.47	321.05
666.81	320.45
667.15	319.85
667.49	319.37
667.83	318.93
668.17	318.45
668.51	318.00
668.85	317.56
669.19	317.15
669.53	316.58
669.87	316.06
670.21	315.54
670.55	315.05
670.89	314.72
671.23	314.27
671.57	313.84
671.91	313.41
672.25	313.02
672.58	312.62
672.92	312.14
673.26	311.72
673.60	311.32
673.94	310.94
674.28	310.56
674.62	310.16
674.96	309.69
675.30	309.27
675.64	308.81
675.97	308.36
676.31	307.83
676.65	307.39
676.99	307.01
677.33	306.50
677.67	306.07
678.01	305.50
678.34	305.01
678.68	304.59
679.02	304.11
679.36	303.64
679.70	303.15
680.04	302.72
680.37	302.25
680.71	301.81
681.05	301.38
681.39	300.92
681.73	300.40
682.06	299.92
682.40	299.48
682.74	299.08
683.08	298.70
683.42	298.24
683.75	297.83
684.09	297.29
684.43	296.84
684.77	296.36
685.10	295.95
685.44	295.54
685.78	295.11
686.12	294.69
686.45	294.21
686.79	293.73
687.13	293.29
687.46	292.81
687.80	292.35
688.14	291.84
688.48	291.39
688.81	290.96
689.15	290.59
689.49	290.12
689.82	289.64
690.16	289.09
690.50	288.66
690.83	288.18
691.17	287.72
691.51	287.29
691.84	286.87
692.18	286.42
692.52	285.93
692.85	285.46
693.19	285.05
693.52	284.65
693.86	284.25
694.20	283.81
694.53	283.41
694.87	282.95
695.21	282.52
695.54	282.07
695.88	281.60
696.21	281.07
696.55	280.64
696.88	280.19
697.22	279.75
697.56	279.33
697.89	278.87
698.23	278.45
698.56	277.99
698.90	277.57
699.23	277.13
699.57	276.73
699.90	276.32
700.24	275.84
700.58	275.39
700.91	275.02
701.25	274.77
701.58	274.42
701.92	274.08
702.25	273.71
702.59	273.30
702.92	272.92
703.26	272.52
703.59	272.13
703.93	271.88
704.26	271.51
704.60	271.10
704.93	270.70
705.26	270.29
705.60	269.94
705.93	269.48
706.27	269.16
706.60	268.82
706.94	268.48
707.27	268.08
707.61	267.73
707.94	267.32
708.27	266.79
708.61	266.35
708.94	265.96
709.28	265.59
709.61	265.24
709.94	264.93
710.28	264.61
710.61	264.30
710.95	263.84
711.28	263.63
711.61	263.32
711.95	263.04
712.28	262.74
712.61	262.39
712.95	262.17
713.28	261.91
713.61	261.54
713.95	261.20
714.28	260.92
714.61	260.59
714.95	260.29
715.28	259.97
715.61	259.68
715.95	259.40
716.28	259.10
716.61	258.82
716.95	258.47
717.28	258.17
717.61	257.86
717.94	257.55
718.28	257.15
718.61	256.85
718.94	256.54
719.27	256.27
719.61	256.03
719.94	255.75
720.27	255.39
720.60	255.13
720.94	254.87
721.27	254.61
721.60	254.36
721.93	254.11
722.27	253.92
722.60	253.71
722.93	253.45
723.26	253.22
723.59	252.98
723.93	252.80
724.26	252.60
724.59	252.37
724.92	252.17
725.25	252.01
725.59	251.80
725.92	251.64
726.25	251.42
726.58	251.21
726.91	250.97
727.24	250.79
727.57	250.57
727.91	250.34
728.24	250.17
728.57	249.95
728.90	249.77
729.23	249.52
729.56	249.40
729.89	249.18
730.22	248.98
730.55	248.76
730.89	248.57
731.22	248.35
731.55	248.16
731.88	247.95
732.21	247.72
732.54	247.52
732.87	247.33
733.20	247.16
733.53	246.98
733.86	246.84
734.19	246.65
734.52	246.52
734.85	246.50
735.18	246.28
735.51	246.18
735.84	246.02
736.17	245.91
736.50	245.65
736.83	245.70
737.16	245.54
737.49	245.38
737.82	245.21
738.15	245.08
738.48	244.93
738.81	244.77
739.14	244.62
739.47	244.48
739.80	244.31
740.13	244.17
740.46	244.00
740.79	243.81
741.12	243.65
741.45	243.48
741.78	243.24
742.11	243.17
742.44	242.98
742.77	242.85
743.10	242.69
743.43	242.56
743.75	242.23
744.08	242.37
744.41	242.23
744.74	242.10
745.07	241.95
745.40	241.85
745.73	241.79
746.06	241.66
746.39	241.55
746.71	241.41
747.04	241.26
747.37	241.13
747.70	241.03
748.03	240.92
748.36	240.82
748.68	240.69
749.01	240.50
749.34	240.40
749.67	240.29
750.00	240.20
750.33	240.23
750.65	240.15
750.98	239.78
751.31	239.68
751.64	239.58
751.97	239.56
752.29	239.42
752.62	239.24
752.95	239.11
753.28	238.98
753.60	238.87
753.93	238.80
754.26	238.72
754.59	238.58
754.91	238.46
755.24	238.32
755.57	238.28
755.90	238.16
756.22	238.04
756.55	237.89
756.88	237.76
757.20	237.53
757.53	237.37
757.86	237.27
758.19	237.18
758.51	237.09
758.84	236.90
759.17	236.80
759.49	236.72
759.82	236.73
760.15	236.65
760.47	236.56
760.80	236.43
761.13	236.36
761.45	236.28
761.78	236.20
762.11	236.14
762.43	235.97
762.76	235.90
763.08	235.85
763.41	235.79
763.74	235.70
764.06	235.62
764.39	235.56
764.71	235.50
765.04	235.39
765.37	235.30
765.69	235.23
766.02	235.17
766.34	235.08
766.67	234.93
767.00	234.91
767.32	234.93
767.65	234.96
767.97	234.88
768.30	234.82
768.62	234.78
768.95	234.68
769.27	234.62
769.60	234.58
769.92	234.49
770.25	234.40
770.57	234.34
770.90	234.29
771.22	234.20
771.55	234.16
771.87	234.12
772.20	234.04
772.52	234.14
772.85	234.31
773.17	234.27
773.50	234.22
773.82	234.13
774.15	234.01
774.47	233.86
774.80	233.79
775.12	233.75
775.45	233.69
775.77	233.68
776.09	233.65
776.42	233.62
776.74	233.63
777.07	233.58
777.39	233.54
777.72	233.49
778.04	233.49
778.36	233.43
778.69	233.40
779.01	233.40
779.33	233.21
779.66	232.97
779.98	232.89
780.31	232.86
780.63	232.90
780.95	232.89
781.28	232.86
781.60	232.81
781.92	232.80
782.25	232.78
782.57	232.73
782.89	232.70
783.22	232.67
783.54	232.60
783.86	232.60
784.19	232.57
784.51	232.60
784.83	232.54
785.16	232.49
785.48	232.47
785.80	232.44
786.12	232.42
786.45	232.39
786.77	232.40
787.09	232.36
787.42	232.28
787.74	232.25
788.06	232.23
788.38	232.22
788.71	232.14
789.03	232.10
789.35	232.10
789.67	232.03
789.99	232.00
790.32	231.96
790.64	231.95
790.96	232.07
791.28	231.99
791.61	231.96
791.93	231.96
792.25	231.92
792.57	232.02
792.89	231.96
793.21	231.96
793.54	231.90
793.86	231.88
794.18	231.84
794.50	231.79
794.82	231.77
795.14	231.78
795.47	231.81
795.79	231.79
796.11	231.73
796.43	231.73
796.75	231.70
797.07	231.66
797.39	231.63
797.71	231.47
798.04	231.45
798.36	231.46
798.68	231.44
799.00	231.43
799.32	231.31
799.64	231.33
799.96	231.30
800.28	231.33
800.60	231.29
800.92	231.30
801.24	231.26
801.56	231.25
801.89	231.19
802.21	231.16
802.53	231.11
802.85	231.12
803.17	231.16
803.49	231.11
803.81	231.09
804.13	231.05
804.45	231.01
804.77	231.01
805.09	230.97
805.41	230.93
805.73	230.87
806.05	230.81
806.37	230.77
806.69	230.74
807.01	230.70
807.33	230.70
807.65	230.62
807.97	230.71
808.28	230.69
808.60	230.67
808.92	230.65
809.24	230.74
809.56	230.69
809.88	230.62
810.20	230.62
810.52	230.64
810.84	230.61
811.16	230.58
811.48	230.55
811.80	230.60
812.12	230.59
812.43	230.62
812.75	230.62
813.07	230.61
813.39	230.61
813.71	230.57
814.03	230.56
814.35	230.55
814.67	230.44
814.98	230.41
815.30	230.40
815.62	230.36
815.94	230.24
816.26	230.27
816.58	230.24
816.89	230.24
817.21	230.19
817.53	230.20
817.85	230.20
818.17	230.19
818.48	230.10
818.80	230.13
819.12	230.10
819.44	230.07
819.76	230.05
820.07	230.05
820.39	230.03
820.71	230.02
821.03	230.04
821.34	230.01
821.66	230.01
821.98	230.04
822.30	230.02
822.61	230.14
822.93	230.08
823.25	230.07
823.57	230.05
823.88	230.07
824.20	230.06
824.52	230.09
824.83	230.07
825.15	230.05
825.47	230.03
825.79	230.03
826.10	230.00
826.42	229.98
826.74	229.97
827.05	229.95
827.37	229.96
827.69	229.94
828.00	229.96
828.32	229.97
828.64	229.94
828.95	230.04
829.27	229.96
829.58	229.96
829.90	229.99
830.22	229.99
830.53	229.94
830.85	229.93
831.17	229.85
831.48	229.86
831.80	229.86
832.11	229.88
832.43	229.85
832.75	229.85
833.06	229.97
833.38	229.90
833.69	229.91
834.01	229.92
834.32	229.90
834.64	229.88
834.96	229.86
835.27	229.85
835.59	229.77
835.90	229.74
836.22	229.74
836.53	229.71
836.85	229.69
837.16	229.88
837.48	229.87
837.79	229.95
838.11	229.95
838.42	229.93
838.74	229.92
839.05	229.91
839.37	229.90
839.68	229.77
840.00	229.77
840.31	229.78
840.63	229.75
840.94	229.72
841.26	229.70
841.57	229.70
841.88	229.70
842.20	229.69
842.51	229.65
842.83	229.65
843.14	229.80
843.46	229.79
843.77	229.68
844.08	229.68
844.40	229.61
844.71	229.58
845.03	229.56
845.34	229.54
845.65	229.53
845.97	229.52
846.28	229.53
846.60	229.56
846.91	229.52
847.22	229.52
847.54	229.57
847.85	229.57
848.16	229.56
848.48	229.52
848.79	229.57
849.10	229.60
849.42	229.61
849.73	229.44
850.04	229.43
850.36	229.37
850.67	229.38
850.98	229.37
851.30	229.38
851.61	229.39
851.92	229.37
852.23	229.43
852.55	229.45
852.86	229.44
853.17	229.47
853.49	229.50
853.80	229.51
854.11	229.50
854.42	229.52
854.74	229.48
855.05	229.49
855.36	229.41
855.67	229.41
855.99	229.38
856.30	229.59
856.61	229.59
856.92	229.57
857.23	229.58
857.55	229.56
857.86	229.55
858.17	229.56
858.48	229.55
858.79	229.51
859.11	229.51
859.42	229.49
859.73	229.45
860.04	229.45
860.35	229.40
860.66	229.34
860.98	229.33
861.29	229.37
861.60	229.35
861.91	229.40
862.22	229.37
862.53	229.35
862.84	229.15
863.16	229.19
863.47	229.16
863.78	229.13
864.09	229.15
864.40	229.16
864.71	229.17
865.02	229.19
865.33	229.16
865.64	229.13
865.95	229.14
866.27	229.23
866.58	229.21
866.89	229.24
867.20	229.24
867.51	229.20
867.82	229.19
868.13	229.25
868.44	229.20
868.75	229.23
869.06	229.24
869.37	229.26
869.68	229.20
869.99	229.25
870.30	229.27
870.61	229.28
870.92	229.25
871.23	229.24
871.54	229.27
871.85	229.30
872.16	229.33
872.47	229.32
872.78	229.23
873.09	229.24
873.40	229.23
873.71	229.25
874.02	229.27
874.33	229.24
874.64	229.19
874.95	229.23
875.26	229.20
875.56	229.20
875.87	229.16
876.18	229.16
876.49	229.32
876.80	229.29
877.11	229.24
877.42	229.25
877.73	229.24
878.04	229.20
878.35	229.21
878.66	229.21
878.96	229.20
879.27	229.19
879.58	229.19
879.89	229.18
880.20	229.23
880.51	229.24
880.82	229.25
881.12	229.26
881.43	229.21
881.74	229.18
882.05	229.17
882.36	229.19
882.67	229.20
882.97	229.01
883.28	229.00
883.59	229.00
883.90	229.01
884.21	229.04
884.51	229.04
884.82	229.02
885.13	229.01
885.44	228.99
885.74	228.97
886.05	228.96
886.36	228.98
886.67	228.92
886.98	228.99
887.28	228.99
887.59	228.97
887.90	228.99
888.20	228.99
888.51	229.03
888.82	229.00
889.13	229.03
889.43	229.18
889.74	229.18
890.05	229.17
890.35	229.16
890.66	229.12
890.97	229.09
891.28	229.06
891.58	229.06
891.89	229.07
892.20	229.07
892.50	229.04
892.81	229.01
893.12	228.99
893.42	228.92
893.73	228.91
894.04	228.92
894.34	228.94
894.65	228.93
894.95	228.92
895.26	228.92
895.57	228.98
895.87	228.81
896.18	228.83
896.48	228.83
896.79	228.84
897.10	228.87
897.40	228.90
897.71	228.91
898.01	228.90
898.32	228.90
898.63	228.87
898.93	228.89
899.24	228.89
899.54	228.90
899.85	228.89
900.15	228.88
900.46	228.88
900.76	228.89
901.07	228.90
901.38	228.89
901.68	228.91
901.99	228.83
902.29	228.84
902.60	228.82
902.90	228.80
903.21	228.78
903.51	228.74
903.82	228.77
904.12	228.78
904.43	228.79
904.73	228.79
905.03	228.82
905.34	228.98
905.64	228.97
905.95	228.99
906.25	229.00
906.56	229.00
906.86	228.98
907.17	228.95
907.47	228.97
907.77	228.94
908.08	228.91
908.38	228.91
908.69	228.92
908.99	228.95
909.30	228.98
909.60	228.99
909.90	228.98
910.21	228.93
910.51	228.89
910.81	228.90
911.12	228.91
911.42	228.92
911.73	228.75
912.03	228.76
912.33	228.78
912.64	228.76
912.94	228.75
913.24	228.72
913.55	228.71
913.85	228.69
914.15	228.73
914.46	228.74
914.76	228.73
915.06	228.72
915.37	228.69
915.67	228.67
915.97	228.68
916.27	228.69
916.58	228.70
916.88	228.70
917.18	228.67
917.49	228.78
917.79	228.79
918.09	228.82
918.39	228.87
918.70	228.84
919.00	228.84
919.30	228.92
919.60	228.91
919.91	228.91
920.21	228.92
920.51	228.87
920.81	228.86
921.12	228.89
921.42	228.88
921.72	228.90
922.02	228.91
922.32	228.92
922.63	228.92
922.93	229.02
923.23	229.05
923.53	229.05
923.83	228.93
924.13	228.94
924.44	228.92
924.74	228.94
925.04	229.00
925.34	229.01
925.64	228.93
925.94	228.95
926.24	229.05
926.55	229.01
926.85	229.05
927.15	229.04
927.45	229.04
927.75	229.05
928.05	229.05
928.35	229.03
928.65	229.06
928.95	229.08
929.26	228.98
929.56	229.00
929.86	229.01
930.16	229.00
930.46	228.99
930.76	229.00
931.06	228.93
931.36	228.87
931.66	228.89
931.96	228.92
932.26	228.93
932.56	228.85
932.86	228.88
933.16	228.87
933.46	228.84
933.76	228.81
934.06	228.83
934.36	228.89
934.66	228.88
934.96	228.86
935.26	228.85
935.56	228.88
935.86	228.81
936.16	228.80
936.46	228.78
936.76	228.76
937.06	228.74
937.36	228.75
937.66	228.76
937.96	228.75
938.26	228.71
938.56	228.70
938.86	228.70
939.16	228.74
939.46	228.78
939.76	228.83
940.06	228.84
940.35	228.81
940.65	228.73
940.95	228.74
941.25	228.69
941.55	228.68
941.85	228.68
942.15	228.71
942.45	228.75
942.75	228.75
943.04	228.75
943.34	228.78
943.64	228.77
943.94	228.74
944.24	228.74
944.54	228.77
944.84	228.76
945.13	228.74
945.43	228.71
945.73	228.69
946.03	228.66
946.33	228.64
946.62	228.62
946.92	228.63
947.22	228.64
947.52	228.67
947.82	228.69
948.11	228.67
948.41	228.64
948.71	228.60
949.01	228.65
949.31	228.64
949.60	228.62
949.90	228.64
950.20	228.63
950.50	228.62
950.79	228.59
951.09	228.62
951.39	228.62
951.69	228.60
951.98	228.63
952.28	228.64
952.58	228.63
952.87	228.64
953.17	228.65
953.47	228.63
953.76	228.63
954.06	228.59
954.36	228.56
954.66	228.57
954.95	228.60
955.25	228.60
955.55	228.60
955.84	228.59
956.14	228.60
956.44	228.63
956.73	228.60
957.03	228.62
957.32	228.61
957.62	228.59
957.92	228.63
958.21	228.61
958.51	228.80
958.81	228.83
959.10	228.84
959.40	228.87
959.69	228.89
959.99	228.91
960.29	228.91
960.58	228.90
960.88	228.98
961.17	228.97
961.47	228.97
961.76	228.96
962.06	228.98
962.36	228.95
962.65	228.95
962.95	228.96
963.24	228.95
963.54	228.94
963.83	228.95
964.13	228.94
964.42	228.91
964.72	228.77
965.01	228.76
965.31	228.76
965.60	228.69
965.90	228.78
966.19	228.73
966.49	228.74
966.78	228.74
967.08	228.70
967.37	228.69
967.67	228.66
967.96	228.68
968.26	228.69
968.55	228.71
968.85	228.70
969.14	228.70
969.43	228.69
969.73	228.68
970.02	228.67
970.32	228.65
970.61	228.63
970.91	228.57
971.20	228.54
971.49	228.50
971.79	228.55
972.08	228.43
972.38	228.46
972.67	228.43
972.96	228.46
973.26	228.43
973.55	228.48
973.85	228.47
974.14	228.46
974.43	228.47
974.73	228.45
975.02	228.44
975.31	228.45
975.61	228.45
975.90	228.45
976.19	228.42
976.49	228.45
976.78	228.47
977.07	228.48
977.37	228.50
977.66	228.53
977.95	228.49
978.24	228.52
978.54	228.55
978.83	228.55
979.12	228.55
979.42	228.55
979.71	228.52
980.00	228.54
980.29	228.55
980.59	228.52
980.88	228.57
981.17	228.56
981.46	228.56
981.76	228.56
982.05	228.63
982.34	228.66
982.63	228.66
982.93	228.64
983.22	228.68
983.51	228.70
983.80	228.73
984.09	228.76
984.39	228.75
984.68	228.73
984.97	228.75
985.26	228.73
985.55	228.75
985.85	228.72
986.14	228.73
986.43	228.74
986.72	228.71
987.01	228.63
987.30	228.63
987.59	228.63
987.89	228.64
988.18	228.57
988.47	228.55
988.76	228.52
989.05	228.49
989.34	228.45
989.63	228.48
989.92	228.43
990.22	228.41
990.51	228.41
990.80	228.38
991.09	228.38
991.38	228.41
991.67	228.39
991.96	228.37
992.25	228.37
992.54	228.33
992.83	228.35
993.12	228.36
993.41	228.39
993.70	228.47
993.99	228.50
994.28	228.53
994.58	228.56
994.87	228.56
995.16	228.58
995.45	228.57
995.74	228.52
996.03	228.56
996.32	228.58
996.61	228.62
996.90	228.62
997.19	228.63
997.48	228.62
997.77	228.58
998.06	228.61
998.34	228.58
998.63	228.58
998.92	228.59
999.21	228.62
999.50	228.61
999.79	228.53
1000.08	228.51
1000.37	228.50
1000.66	228.46
1000.95	228.50
1001.24	228.49
1001.53	228.53
1001.82	228.51
1002.11	228.47
1002.40	228.47
1002.68	228.51
1002.97	228.63
1003.26	228.59
1003.55	228.56
1003.84	228.60
1004.13	228.66
1004.42	228.64
1004.71	228.65
1004.99	228.64
1005.28	228.68
1005.57	228.67
1005.86	228.66
1006.15	228.65
1006.44	228.63
1006.72	228.65
1007.01	228.61
1007.30	228.63
1007.59	228.60
1007.88	228.61
1008.17	228.62
1008.45	228.58
1008.74	228.50
1009.03	228.41
1009.32	228.42
1009.60	228.43
1009.89	228.41
1010.18	228.32
1010.47	228.32
1010.76	228.32
1011.04	228.32
1011.33	228.30
1011.62	228.31
1011.91	228.32
1012.19	228.34
1012.48	228.35
1012.77	228.34
1013.05	228.41
1013.34	228.40
1013.63	228.40
1013.92	228.41
1014.20	228.42
1014.49	228.43
1014.78	228.46
1015.06	228.42
1015.35	228.43
1015.64	228.46
1015.92	228.49
1016.21	228.50
1016.50	228.52
1016.78	228.54
1017.07	228.57
1017.36	228.53
1017.64	228.53
1017.93	228.56
1018.22	228.54
1018.50	228.53
1018.79	228.54
1019.08	228.48
1019.36	228.49
1019.65	228.48
1019.93	228.54
1020.22	228.56
1020.51	228.65
1020.79	228.63
1021.08	228.34
1021.36	228.28
1021.65	228.61
1021.94	228.32
1022.22	228.62
1022.51	228.05
1022.79	229.50
1023.08	228.94
1023.36	230.52
1023.65	228.02
>>>>>End Processed Spectral Data<<<<<
