SpectraSuite Data File
++++++++++++++++++++++++++++++++++++
Date: Tue Oct 06 15:15:51 EDT 2015
User: lab3
Dark Spectrum Present: No
Reference Spectrum Present: No
Number of Sampled Component Spectra: 1
Spectrometers: USB2E7196
Integration Time (usec): 66000 (USB2E7196)
Spectra Averaged: 400 (USB2E7196)
Boxcar Smoothing: 10 (USB2E7196)
Correct for Electrical Dark: No (USB2E7196)
Strobe/Lamp Enabled: No (USB2E7196)
Correct for Detector Non-linearity: No (USB2E7196)
Correct for Stray Light: No (USB2E7196)
Number of Pixels in Processed Spectrum: 2048
>>>>>Begin Processed Spectral Data<<<<<
339.09	0.00
339.48	215.05
339.86	216.39
340.24	218.06
340.63	219.25
341.01	223.41
341.39	221.95
341.78	223.71
342.16	225.04
342.54	225.22
342.93	213.61
343.31	224.39
343.69	224.94
344.07	225.41
344.46	225.84
344.84	226.25
345.22	226.44
345.60	226.73
345.99	226.92
346.37	227.06
346.75	227.18
347.13	227.26
347.52	227.33
347.90	227.47
348.28	227.52
348.66	227.60
349.05	227.58
349.43	227.66
349.81	227.74
350.19	227.79
350.57	227.87
350.96	227.97
351.34	228.08
351.72	228.19
352.10	228.30
352.48	228.39
352.87	228.44
353.25	228.51
353.63	228.55
354.01	228.61
354.39	228.68
354.77	228.77
355.15	228.89
355.54	228.95
355.92	228.95
356.30	229.02
356.68	229.21
357.06	229.28
357.44	229.31
357.82	229.36
358.20	229.60
358.58	229.66
358.97	229.74
359.35	229.83
359.73	229.92
360.11	229.96
360.49	230.01
360.87	230.06
361.25	230.13
361.63	230.23
362.01	230.30
362.39	230.33
362.77	230.36
363.15	230.39
363.53	230.42
363.91	230.47
364.29	230.49
364.67	230.34
365.05	230.37
365.43	230.41
365.81	230.46
366.19	230.39
366.57	230.45
366.95	230.44
367.33	230.41
367.71	230.39
368.09	230.43
368.47	230.44
368.85	230.42
369.23	230.45
369.61	230.38
369.99	230.41
370.37	230.41
370.75	230.54
371.13	230.49
371.51	230.43
371.89	230.41
372.27	230.38
372.65	230.38
373.03	230.33
373.41	230.28
373.78	230.22
374.16	230.08
374.54	229.99
374.92	229.92
375.30	229.89
375.68	229.82
376.06	229.77
376.44	229.70
376.82	229.67
377.19	229.62
377.57	229.57
377.95	229.46
378.33	229.40
378.71	229.17
379.09	229.13
379.47	229.12
379.84	229.05
380.22	228.98
380.60	228.91
380.98	228.87
381.36	228.83
381.73	228.76
382.11	228.76
382.49	228.73
382.87	228.67
383.25	228.62
383.62	228.78
384.00	228.71
384.38	228.67
384.76	228.68
385.13	228.70
385.51	228.66
385.89	228.61
386.27	228.58
386.64	228.59
387.02	228.53
387.40	228.48
387.78	228.47
388.15	228.44
388.53	228.40
388.91	228.37
389.29	228.33
389.66	228.33
390.04	228.29
390.42	228.29
390.79	228.28
391.17	228.26
391.55	228.05
391.92	228.05
392.30	228.05
392.68	227.99
393.05	227.96
393.43	227.97
393.81	227.98
394.18	227.95
394.56	227.96
394.94	228.02
395.31	228.01
395.69	228.09
396.06	228.13
396.44	228.19
396.82	228.23
397.19	228.36
397.57	228.39
397.95	228.46
398.32	228.47
398.70	228.56
399.07	228.67
399.45	228.74
399.82	228.80
400.20	228.86
400.58	228.96
400.95	228.98
401.33	229.13
401.70	229.36
402.08	229.52
402.45	229.64
402.83	229.82
403.20	229.99
403.58	230.12
403.95	230.33
404.33	230.56
404.71	230.76
405.08	231.07
405.46	231.32
405.83	231.61
406.21	231.90
406.58	232.22
406.96	232.54
407.33	232.90
407.70	233.33
408.08	233.92
408.45	234.42
408.83	234.96
409.20	235.45
409.58	235.91
409.95	236.54
410.33	237.22
410.70	237.86
411.08	238.62
411.45	239.43
411.82	240.25
412.20	241.18
412.57	242.29
412.95	243.18
413.32	244.34
413.69	245.52
414.07	246.78
414.44	248.17
414.82	249.56
415.19	251.22
415.56	252.89
415.94	254.64
416.31	256.60
416.68	258.57
417.06	260.84
417.43	262.96
417.81	265.41
418.18	267.93
418.55	270.66
418.93	273.52
419.30	276.49
419.67	279.66
420.04	282.90
420.42	286.31
420.79	290.22
421.16	294.14
421.54	298.15
421.91	302.33
422.28	306.68
422.66	311.36
423.03	315.84
423.40	320.54
423.77	325.54
424.15	330.67
424.52	335.99
424.89	341.74
425.26	347.46
425.64	352.78
426.01	358.71
426.38	364.77
426.75	371.03
427.13	377.43
427.50	384.13
427.87	391.06
428.24	398.10
428.61	404.81
428.99	412.05
429.36	420.00
429.73	427.63
430.10	435.17
430.47	442.89
430.85	450.88
431.22	459.38
431.59	468.14
431.96	476.66
432.33	486.13
432.70	495.16
433.08	505.83
433.45	515.92
433.82	525.86
434.19	536.98
434.56	547.95
434.93	558.61
435.30	569.17
435.68	581.16
436.05	592.83
436.42	604.53
436.79	615.25
437.16	626.90
437.53	639.30
437.90	651.79
438.27	664.01
438.64	677.19
439.01	689.16
439.38	700.14
439.75	710.82
440.13	722.94
440.50	734.51
440.87	743.75
441.24	753.88
441.61	764.99
441.98	773.25
442.35	782.99
442.72	792.90
443.09	802.32
443.46	808.48
443.83	813.22
444.20	817.12
444.57	822.79
444.94	826.16
445.31	829.60
445.68	832.52
446.05	834.81
446.42	834.58
446.79	834.15
447.16	833.74
447.53	833.36
447.90	829.86
448.27	826.42
448.64	821.02
449.01	817.30
449.37	809.66
449.74	802.69
450.11	793.71
450.48	783.83
450.85	773.93
451.22	765.40
451.59	756.98
451.96	749.44
452.33	738.36
452.70	728.56
453.07	716.70
453.43	704.91
453.80	693.35
454.17	682.28
454.54	672.02
454.91	660.50
455.28	649.60
455.65	639.28
456.02	628.45
456.38	619.73
456.75	608.58
457.12	599.50
457.49	590.38
457.86	581.73
458.23	574.12
458.59	565.75
458.96	557.16
459.33	549.56
459.70	541.82
460.07	535.97
460.43	529.05
460.80	522.54
461.17	516.88
461.54	510.80
461.91	505.09
462.27	499.26
462.64	494.52
463.01	489.13
463.38	483.68
463.74	478.70
464.11	474.32
464.48	470.35
464.85	466.11
465.21	462.84
465.58	459.21
465.95	455.08
466.32	451.78
466.68	448.57
467.05	445.33
467.42	442.17
467.78	438.84
468.15	435.70
468.52	433.47
468.88	430.47
469.25	427.72
469.62	425.50
469.98	423.11
470.35	420.97
470.72	419.02
471.08	417.08
471.45	415.47
471.82	413.63
472.18	411.71
472.55	410.47
472.92	408.92
473.28	407.73
473.65	406.44
474.02	405.23
474.38	404.17
474.75	403.56
475.11	402.71
475.48	402.27
475.85	401.83
476.21	401.59
476.58	401.37
476.94	401.54
477.31	401.58
477.67	401.69
478.04	402.00
478.41	402.45
478.77	403.06
479.14	403.45
479.50	404.22
479.87	405.24
480.23	406.21
480.60	407.16
480.96	408.12
481.33	409.57
481.69	410.98
482.06	412.40
482.42	413.72
482.79	415.38
483.15	417.27
483.52	419.42
483.88	421.43
484.25	423.59
484.61	425.87
484.98	428.32
485.34	431.03
485.71	433.88
486.07	436.93
486.44	439.95
486.80	443.37
487.17	446.86
487.53	450.63
487.90	454.61
488.26	458.96
488.62	463.48
488.99	468.00
489.35	472.78
489.72	477.91
490.08	483.28
490.44	488.73
490.81	494.48
491.17	500.37
491.54	506.67
491.90	513.09
492.26	519.96
492.63	527.17
492.99	534.71
493.36	542.43
493.72	550.52
494.08	558.80
494.45	567.44
494.81	576.49
495.17	585.81
495.54	595.55
495.90	605.77
496.26	616.18
496.63	626.87
496.99	637.92
497.35	649.54
497.72	661.44
498.08	673.68
498.44	686.22
498.80	699.46
499.17	712.97
499.53	726.99
499.89	741.38
500.26	755.92
500.62	770.82
500.98	786.54
501.34	802.34
501.71	818.87
502.07	835.74
502.43	853.03
502.79	870.46
503.16	888.48
503.52	906.62
503.88	925.15
504.24	944.21
504.60	963.49
504.97	983.30
505.33	1003.55
505.69	1024.89
506.05	1046.31
506.41	1067.67
506.78	1089.25
507.14	1111.35
507.50	1133.96
507.86	1156.93
508.22	1180.02
508.59	1202.88
508.95	1226.76
509.31	1251.09
509.67	1276.08
510.03	1301.01
510.39	1325.89
510.75	1350.84
511.12	1376.12
511.48	1401.49
511.84	1426.78
512.20	1452.22
512.56	1478.63
512.92	1505.02
513.28	1530.69
513.64	1556.81
514.00	1583.17
514.37	1609.75
514.73	1636.37
515.09	1662.19
515.45	1688.28
515.81	1714.62
516.17	1740.59
516.53	1765.91
516.89	1791.13
517.25	1816.45
517.61	1841.62
517.97	1867.33
518.33	1892.29
518.69	1917.10
519.05	1942.38
519.41	1967.67
519.77	1992.95
520.13	2016.92
520.49	2040.87
520.85	2065.21
521.21	2088.90
521.57	2112.90
521.93	2135.81
522.29	2159.42
522.65	2182.74
523.01	2205.80
523.37	2228.26
523.73	2251.35
524.09	2274.11
524.45	2296.47
524.81	2318.23
525.17	2339.60
525.53	2360.30
525.89	2381.48
526.25	2402.13
526.61	2421.33
526.97	2440.50
527.33	2459.60
527.68	2478.18
528.04	2496.30
528.40	2513.02
528.76	2530.13
529.12	2546.66
529.48	2563.84
529.84	2578.36
530.20	2593.34
530.56	2607.33
530.91	2621.44
531.27	2635.02
531.63	2647.73
531.99	2659.94
532.35	2671.83
532.71	2683.30
533.07	2695.06
533.42	2705.02
533.78	2715.26
534.14	2726.36
534.50	2736.38
534.86	2746.97
535.21	2755.40
535.57	2763.68
535.93	2772.08
536.29	2778.85
536.65	2785.29
537.00	2790.04
537.36	2795.88
537.72	2800.80
538.08	2805.32
538.44	2808.52
538.79	2811.72
539.15	2813.61
539.51	2815.16
539.87	2815.65
540.22	2814.47
540.58	2813.44
540.94	2813.20
541.29	2811.97
541.65	2809.05
542.01	2805.95
542.37	2801.25
542.72	2798.34
543.08	2793.79
543.44	2789.28
543.79	2783.95
544.15	2778.09
544.51	2772.75
544.87	2766.29
545.22	2759.01
545.58	2751.59
545.94	2744.50
546.29	2735.96
546.65	2727.58
547.01	2719.04
547.36	2710.90
547.72	2703.00
548.07	2693.55
548.43	2683.11
548.79	2672.22
549.14	2661.87
549.50	2651.64
549.86	2640.59
550.21	2627.86
550.57	2616.21
550.92	2602.78
551.28	2590.10
551.64	2577.72
551.99	2564.94
552.35	2551.95
552.70	2538.74
553.06	2526.09
553.41	2513.08
553.77	2499.50
554.13	2486.11
554.48	2471.86
554.84	2456.80
555.19	2442.50
555.55	2428.04
555.90	2413.73
556.26	2400.04
556.61	2385.31
556.97	2369.48
557.32	2354.03
557.68	2338.90
558.03	2323.51
558.39	2309.11
558.74	2295.10
559.10	2279.42
559.45	2264.15
559.81	2249.52
560.16	2234.63
560.52	2219.54
560.87	2204.54
561.23	2189.32
561.58	2174.53
561.94	2159.39
562.29	2143.93
562.64	2128.44
563.00	2113.15
563.35	2098.23
563.71	2082.77
564.06	2067.55
564.42	2052.80
564.77	2038.11
565.12	2023.35
565.48	2008.47
565.83	1993.81
566.19	1979.21
566.54	1964.83
566.89	1949.67
567.25	1934.35
567.60	1919.85
567.96	1904.73
568.31	1888.40
568.66	1873.06
569.02	1858.28
569.37	1843.95
569.72	1830.09
570.08	1815.93
570.43	1801.26
570.78	1786.35
571.14	1771.34
571.49	1756.37
571.84	1741.90
572.20	1726.38
572.55	1711.48
572.90	1696.54
573.26	1681.55
573.61	1665.96
573.96	1650.88
574.31	1635.93
574.67	1620.95
575.02	1605.68
575.37	1590.31
575.72	1575.72
576.08	1561.06
576.43	1545.76
576.78	1530.63
577.13	1515.66
577.49	1500.99
577.84	1486.64
578.19	1471.91
578.54	1457.19
578.90	1442.57
579.25	1427.72
579.60	1413.96
579.95	1400.03
580.30	1386.06
580.66	1371.89
581.01	1357.92
581.36	1344.06
581.71	1330.73
582.06	1317.40
582.42	1303.90
582.77	1290.94
583.12	1278.21
583.47	1265.31
583.82	1252.73
584.17	1239.78
584.53	1226.93
584.88	1214.24
585.23	1201.50
585.58	1189.11
585.93	1176.76
586.28	1165.16
586.63	1153.45
586.98	1141.52
587.34	1129.87
587.69	1118.05
588.04	1106.61
588.39	1095.42
588.74	1083.83
589.09	1072.48
589.44	1060.83
589.79	1049.76
590.14	1038.70
590.49	1027.77
590.84	1017.14
591.19	1006.61
591.54	996.20
591.89	985.40
592.25	974.97
592.60	964.53
592.95	954.23
593.30	944.11
593.65	933.77
594.00	923.73
594.35	914.43
594.70	904.63
595.05	895.44
595.40	886.02
595.75	876.44
596.10	867.43
596.45	858.39
596.80	849.69
597.15	841.02
597.50	832.42
597.85	824.00
598.19	815.51
598.54	807.03
598.89	798.99
599.24	791.39
599.59	783.69
599.94	776.40
600.29	769.16
600.64	761.89
600.99	754.51
601.34	747.35
601.69	739.65
602.04	732.70
602.39	725.69
602.74	718.93
603.08	712.23
603.43	705.55
603.78	698.88
604.13	692.29
604.48	685.77
604.83	679.36
605.18	673.06
605.53	666.93
605.87	660.78
606.22	654.72
606.57	648.63
606.92	642.41
607.27	636.28
607.62	630.36
607.96	624.61
608.31	619.26
608.66	613.82
609.01	608.70
609.36	603.53
609.70	598.29
610.05	593.07
610.40	588.06
610.75	583.03
611.10	578.20
611.44	573.37
611.79	568.65
612.14	563.88
612.49	559.16
612.83	554.69
613.18	550.28
613.53	545.89
613.88	541.58
614.22	537.59
614.57	533.52
614.92	529.52
615.27	525.68
615.61	521.75
615.96	517.88
616.31	513.96
616.65	510.20
617.00	506.56
617.35	502.94
617.70	499.35
618.04	495.88
618.39	492.47
618.74	489.30
619.08	486.08
619.43	482.98
619.78	479.83
620.12	476.64
620.47	473.68
620.82	470.77
621.16	467.85
621.51	464.99
621.85	462.19
622.20	459.44
622.55	456.67
622.89	453.96
623.24	451.39
623.59	448.88
623.93	446.42
624.28	444.10
624.62	441.95
624.97	439.84
625.32	437.60
625.66	435.32
626.01	433.03
626.35	430.87
626.70	428.65
627.04	426.61
627.39	424.55
627.73	422.55
628.08	420.63
628.43	418.72
628.77	416.74
629.12	414.84
629.46	413.01
629.81	411.32
630.15	409.55
630.50	407.77
630.84	406.06
631.19	404.41
631.53	402.81
631.88	401.04
632.22	399.35
632.57	397.93
632.91	396.50
633.26	395.12
633.60	393.79
633.95	392.50
634.29	391.12
634.64	389.77
634.98	388.30
635.32	386.96
635.67	385.77
636.01	384.57
636.36	383.43
636.70	382.37
637.05	381.16
637.39	380.07
637.73	378.99
638.08	377.99
638.42	376.96
638.77	375.83
639.11	374.67
639.45	373.54
639.80	372.37
640.14	371.28
640.49	370.18
640.83	369.02
641.17	367.97
641.52	366.93
641.86	365.92
642.20	365.06
642.55	364.04
642.89	363.01
643.23	362.06
643.58	361.21
643.92	360.22
644.26	359.28
644.61	358.38
644.95	357.47
645.29	356.47
645.64	355.49
645.98	354.59
646.32	353.79
646.66	352.95
647.01	352.13
647.35	351.39
647.69	350.59
648.04	349.91
648.38	349.11
648.72	348.35
649.06	347.59
649.41	346.80
649.75	346.04
650.09	345.36
650.43	344.63
650.78	343.85
651.12	343.10
651.46	342.39
651.80	341.69
652.14	341.02
652.49	340.42
652.83	339.75
653.17	339.03
653.51	338.34
653.85	337.75
654.20	337.11
654.54	336.35
654.88	335.67
655.22	335.03
655.56	334.35
655.90	333.71
656.25	333.08
656.59	332.44
656.93	331.85
657.27	331.29
657.61	330.66
657.95	330.12
658.29	329.55
658.64	328.98
658.98	328.38
659.32	327.79
659.66	327.23
660.00	326.71
660.34	326.21
660.68	325.64
661.02	325.00
661.36	324.41
661.70	323.88
662.05	323.37
662.39	322.81
662.73	322.35
663.07	321.92
663.41	321.46
663.75	320.94
664.09	320.44
664.43	319.83
664.77	319.30
665.11	318.70
665.45	318.17
665.79	317.67
666.13	317.14
666.47	316.58
666.81	316.00
667.15	315.40
667.49	314.92
667.83	314.51
668.17	314.06
668.51	313.64
668.85	313.24
669.19	312.84
669.53	312.31
669.87	311.77
670.21	311.23
670.55	310.71
670.89	310.32
671.23	309.86
671.57	309.44
671.91	309.08
672.25	308.74
672.58	308.38
672.92	307.92
673.26	307.55
673.60	307.18
673.94	306.78
674.28	306.41
674.62	306.02
674.96	305.55
675.30	305.17
675.64	304.71
675.97	304.23
676.31	303.75
676.65	303.33
676.99	302.99
677.33	302.53
677.67	302.13
678.01	301.63
678.34	301.19
678.68	300.78
679.02	300.32
679.36	299.85
679.70	299.38
680.04	298.99
680.37	298.57
680.71	298.16
681.05	297.77
681.39	297.34
681.73	296.84
682.06	296.41
682.40	296.00
682.74	295.65
683.08	295.35
683.42	294.94
683.75	294.58
684.09	294.09
684.43	293.72
684.77	293.29
685.10	292.90
685.44	292.51
685.78	292.11
686.12	291.71
686.45	291.28
686.79	290.85
687.13	290.47
687.46	289.99
687.80	289.58
688.14	289.11
688.48	288.69
688.81	288.30
689.15	287.94
689.49	287.49
689.82	287.04
690.16	286.50
690.50	286.06
690.83	285.62
691.17	285.19
691.51	284.77
691.84	284.42
692.18	283.98
692.52	283.52
692.85	283.07
693.19	282.71
693.52	282.32
693.86	281.89
694.20	281.45
694.53	281.06
694.87	280.59
695.21	280.15
695.54	279.73
695.88	279.29
696.21	278.80
696.55	278.36
696.88	277.93
697.22	277.51
697.56	277.11
697.89	276.65
698.23	276.25
698.56	275.79
698.90	275.36
699.23	274.93
699.57	274.53
699.90	274.14
700.24	273.68
700.58	273.26
700.91	272.93
701.25	272.70
701.58	272.41
701.92	272.10
702.25	271.76
702.59	271.37
702.92	271.00
703.26	270.62
703.59	270.25
703.93	270.02
704.26	269.67
704.60	269.30
704.93	268.95
705.26	268.57
705.60	268.24
705.93	267.82
706.27	267.52
706.60	267.23
706.94	266.92
707.27	266.55
707.61	266.20
707.94	265.80
708.27	265.27
708.61	264.83
708.94	264.46
709.28	264.11
709.61	263.75
709.94	263.44
710.28	263.14
710.61	262.83
710.95	262.34
711.28	262.14
711.61	261.80
711.95	261.52
712.28	261.17
712.61	260.85
712.95	260.65
713.28	260.39
713.61	260.02
713.95	259.65
714.28	259.35
714.61	259.01
714.95	258.71
715.28	258.41
715.61	258.12
715.95	257.85
716.28	257.55
716.61	257.31
716.95	256.97
717.28	256.68
717.61	256.38
717.94	256.12
718.28	255.73
718.61	255.45
718.94	255.15
719.27	254.91
719.61	254.66
719.94	254.34
720.27	254.00
720.60	253.76
720.94	253.50
721.27	253.24
721.60	253.04
721.93	252.77
722.27	252.57
722.60	252.32
722.93	252.06
723.26	251.84
723.59	251.56
723.93	251.37
724.26	251.16
724.59	250.94
724.92	250.73
725.25	250.56
725.59	250.35
725.92	250.14
726.25	249.92
726.58	249.73
726.91	249.49
727.24	249.30
727.57	249.09
727.91	248.86
728.24	248.70
728.57	248.48
728.90	248.31
729.23	248.05
729.56	247.94
729.89	247.73
730.22	247.51
730.55	247.32
730.89	247.12
731.22	246.92
731.55	246.72
731.88	246.54
732.21	246.32
732.54	246.13
732.87	245.95
733.20	245.79
733.53	245.60
733.86	245.47
734.19	245.28
734.52	245.12
734.85	245.08
735.18	244.88
735.51	244.75
735.84	244.59
736.17	244.48
736.50	244.22
736.83	244.27
737.16	244.12
737.49	243.98
737.82	243.81
738.15	243.66
738.48	243.50
738.81	243.33
739.14	243.15
739.47	242.98
739.80	242.82
740.13	242.68
740.46	242.49
740.79	242.30
741.12	242.15
741.45	241.97
741.78	241.71
742.11	241.62
742.44	241.42
742.77	241.31
743.10	241.14
743.43	240.99
743.75	240.67
744.08	240.81
744.41	240.65
744.74	240.50
745.07	240.34
745.40	240.25
745.73	240.18
746.06	240.05
746.39	239.95
746.71	239.81
747.04	239.65
747.37	239.53
747.70	239.44
748.03	239.30
748.36	239.23
748.68	239.12
749.01	238.94
749.34	238.85
749.67	238.73
750.00	238.64
750.33	238.66
750.65	238.56
750.98	238.19
751.31	238.10
751.64	238.02
751.97	238.00
752.29	237.86
752.62	237.66
752.95	237.56
753.28	237.44
753.60	237.33
753.93	237.28
754.26	237.20
754.59	237.03
754.91	236.91
755.24	236.76
755.57	236.67
755.90	236.57
756.22	236.45
756.55	236.31
756.88	236.17
757.20	235.94
757.53	235.78
757.86	235.67
758.19	235.58
758.51	235.46
758.84	235.30
759.17	235.20
759.49	235.13
759.82	235.12
760.15	235.04
760.47	234.96
760.80	234.81
761.13	234.76
761.45	234.68
761.78	234.60
762.11	234.54
762.43	234.41
762.76	234.34
763.08	234.28
763.41	234.21
763.74	234.13
764.06	234.06
764.39	234.00
764.71	233.93
765.04	233.85
765.37	233.75
765.69	233.65
766.02	233.56
766.34	233.48
766.67	233.34
767.00	233.31
767.32	233.33
767.65	233.37
767.97	233.29
768.30	233.23
768.62	233.17
768.95	233.07
769.27	233.02
769.60	232.98
769.92	232.88
770.25	232.78
770.57	232.69
770.90	232.62
771.22	232.55
771.55	232.50
771.87	232.45
772.20	232.41
772.52	232.48
772.85	232.67
773.17	232.63
773.50	232.57
773.82	232.48
774.15	232.35
774.47	232.20
774.80	232.13
775.12	232.09
775.45	232.03
775.77	232.00
776.09	231.98
776.42	231.93
776.74	231.96
777.07	231.94
777.39	231.91
777.72	231.87
778.04	231.88
778.36	231.81
778.69	231.77
779.01	231.74
779.33	231.58
779.66	231.34
779.98	231.28
780.31	231.26
780.63	231.30
780.95	231.30
781.28	231.26
781.60	231.21
781.92	231.16
782.25	231.14
782.57	231.11
782.89	231.05
783.22	231.00
783.54	230.93
783.86	230.90
784.19	230.88
784.51	230.91
784.83	230.85
785.16	230.82
785.48	230.80
785.80	230.78
786.12	230.74
786.45	230.71
786.77	230.72
787.09	230.68
787.42	230.60
787.74	230.56
788.06	230.55
788.38	230.52
788.71	230.49
789.03	230.47
789.35	230.47
789.67	230.43
789.99	230.41
790.32	230.37
790.64	230.37
790.96	230.52
791.28	230.41
791.61	230.37
791.93	230.36
792.25	230.32
792.57	230.41
792.89	230.37
793.21	230.36
793.54	230.29
793.86	230.26
794.18	230.24
794.50	230.19
794.82	230.16
795.14	230.18
795.47	230.17
795.79	230.14
796.11	230.08
796.43	230.05
796.75	230.02
797.07	230.00
797.39	229.97
797.71	229.77
798.04	229.77
798.36	229.77
798.68	229.74
799.00	229.73
799.32	229.61
799.64	229.63
799.96	229.61
800.28	229.63
800.60	229.60
800.92	229.58
801.24	229.55
801.56	229.56
801.89	229.51
802.21	229.50
802.53	229.45
802.85	229.47
803.17	229.55
803.49	229.49
803.81	229.45
804.13	229.41
804.45	229.38
804.77	229.37
805.09	229.34
805.41	229.31
805.73	229.25
806.05	229.19
806.37	229.14
806.69	229.12
807.01	229.08
807.33	229.07
807.65	229.01
807.97	229.05
808.28	229.00
808.60	228.97
808.92	228.94
809.24	229.04
809.56	228.99
809.88	228.91
810.20	228.92
810.52	228.94
810.84	228.92
811.16	228.89
811.48	228.85
811.80	228.89
812.12	228.88
812.43	228.91
812.75	228.91
813.07	228.88
813.39	228.86
813.71	228.84
814.03	228.81
814.35	228.80
814.67	228.74
814.98	228.72
815.30	228.73
815.62	228.69
815.94	228.56
816.26	228.57
816.58	228.53
816.89	228.53
817.21	228.47
817.53	228.46
817.85	228.46
818.17	228.45
818.48	228.39
818.80	228.42
819.12	228.38
819.44	228.34
819.76	228.30
820.07	228.30
820.39	228.28
820.71	228.27
821.03	228.25
821.34	228.22
821.66	228.24
821.98	228.24
822.30	228.23
822.61	228.32
822.93	228.27
823.25	228.25
823.57	228.24
823.88	228.25
824.20	228.25
824.52	228.27
824.83	228.25
825.15	228.22
825.47	228.19
825.79	228.20
826.10	228.20
826.42	228.19
826.74	228.21
827.05	228.20
827.37	228.20
827.69	228.19
828.00	228.20
828.32	228.19
828.64	228.14
828.95	228.23
829.27	228.18
829.58	228.17
829.90	228.22
830.22	228.23
830.53	228.21
830.85	228.18
831.17	228.14
831.48	228.14
831.80	228.13
832.11	228.13
832.43	228.11
832.75	228.09
833.06	228.20
833.38	228.15
833.69	228.14
834.01	228.15
834.32	228.14
834.64	228.10
834.96	228.10
835.27	228.10
835.59	228.02
835.90	227.99
836.22	227.99
836.53	227.93
836.85	227.89
837.16	228.06
837.48	228.06
837.79	228.12
838.11	228.11
838.42	228.11
838.74	228.12
839.05	228.09
839.37	228.09
839.68	227.97
840.00	227.95
840.31	227.98
840.63	227.96
840.94	227.94
841.26	227.94
841.57	227.92
841.88	227.93
842.20	227.90
842.51	227.87
842.83	227.85
843.14	228.01
843.46	228.00
843.77	227.89
844.08	227.86
844.40	227.81
844.71	227.79
845.03	227.78
845.34	227.76
845.65	227.76
845.97	227.76
846.28	227.77
846.60	227.79
846.91	227.73
847.22	227.72
847.54	227.76
847.85	227.76
848.16	227.74
848.48	227.71
848.79	227.80
849.10	227.82
849.42	227.83
849.73	227.66
850.04	227.66
850.36	227.58
850.67	227.63
850.98	227.62
851.30	227.61
851.61	227.61
851.92	227.59
852.23	227.66
852.55	227.65
852.86	227.64
853.17	227.64
853.49	227.68
853.80	227.71
854.11	227.70
854.42	227.73
854.74	227.71
855.05	227.72
855.36	227.60
855.67	227.60
855.99	227.61
856.30	227.82
856.61	227.82
856.92	227.82
857.23	227.82
857.55	227.80
857.86	227.82
858.17	227.84
858.48	227.81
858.79	227.75
859.11	227.76
859.42	227.74
859.73	227.71
860.04	227.70
860.35	227.65
860.66	227.61
860.98	227.59
861.29	227.62
861.60	227.61
861.91	227.65
862.22	227.63
862.53	227.59
862.84	227.39
863.16	227.43
863.47	227.40
863.78	227.38
864.09	227.40
864.40	227.39
864.71	227.38
865.02	227.40
865.33	227.39
865.64	227.36
865.95	227.37
866.27	227.49
866.58	227.47
866.89	227.50
867.20	227.49
867.51	227.46
867.82	227.42
868.13	227.48
868.44	227.45
868.75	227.47
869.06	227.47
869.37	227.49
869.68	227.43
869.99	227.47
870.30	227.49
870.61	227.50
870.92	227.48
871.23	227.47
871.54	227.49
871.85	227.52
872.16	227.54
872.47	227.51
872.78	227.41
873.09	227.43
873.40	227.39
873.71	227.41
874.02	227.43
874.33	227.42
874.64	227.35
874.95	227.38
875.26	227.33
875.56	227.35
875.87	227.33
876.18	227.31
876.49	227.47
876.80	227.44
877.11	227.40
877.42	227.42
877.73	227.41
878.04	227.36
878.35	227.37
878.66	227.38
878.96	227.37
879.27	227.36
879.58	227.34
879.89	227.34
880.20	227.40
880.51	227.40
880.82	227.41
881.12	227.43
881.43	227.39
881.74	227.36
882.05	227.34
882.36	227.34
882.67	227.36
882.97	227.16
883.28	227.15
883.59	227.15
883.90	227.15
884.21	227.18
884.51	227.19
884.82	227.14
885.13	227.15
885.44	227.15
885.74	227.16
886.05	227.13
886.36	227.12
886.67	227.04
886.98	227.14
887.28	227.16
887.59	227.16
887.90	227.15
888.20	227.17
888.51	227.22
888.82	227.18
889.13	227.18
889.43	227.36
889.74	227.34
890.05	227.33
890.35	227.31
890.66	227.28
890.97	227.25
891.28	227.25
891.58	227.24
891.89	227.25
892.20	227.24
892.50	227.24
892.81	227.25
893.12	227.25
893.42	227.17
893.73	227.17
894.04	227.16
894.34	227.19
894.65	227.19
894.95	227.17
895.26	227.19
895.57	227.29
895.87	227.10
896.18	227.14
896.48	227.16
896.79	227.18
897.10	227.22
897.40	227.23
897.71	227.27
898.01	227.25
898.32	227.26
898.63	227.25
898.93	227.28
899.24	227.27
899.54	227.26
899.85	227.26
900.15	227.25
900.46	227.26
900.76	227.26
901.07	227.25
901.38	227.24
901.68	227.28
901.99	227.18
902.29	227.21
902.60	227.19
902.90	227.18
903.21	227.15
903.51	227.14
903.82	227.18
904.12	227.17
904.43	227.18
904.73	227.17
905.03	227.19
905.34	227.35
905.64	227.35
905.95	227.36
906.25	227.34
906.56	227.32
906.86	227.31
907.17	227.30
907.47	227.31
907.77	227.29
908.08	227.25
908.38	227.25
908.69	227.26
908.99	227.29
909.30	227.30
909.60	227.30
909.90	227.28
910.21	227.22
910.51	227.20
910.81	227.21
911.12	227.22
911.42	227.22
911.73	227.04
912.03	227.06
912.33	227.09
912.64	227.08
912.94	227.07
913.24	227.04
913.55	227.03
913.85	227.03
914.15	227.06
914.46	227.08
914.76	227.08
915.06	227.06
915.37	227.03
915.67	227.03
915.97	227.03
916.27	227.01
916.58	227.04
916.88	227.02
917.18	227.01
917.49	227.13
917.79	227.11
918.09	227.13
918.39	227.16
918.70	227.15
919.00	227.16
919.30	227.24
919.60	227.23
919.91	227.21
920.21	227.21
920.51	227.16
920.81	227.14
921.12	227.16
921.42	227.17
921.72	227.18
922.02	227.19
922.32	227.20
922.63	227.22
922.93	227.32
923.23	227.33
923.53	227.32
923.83	227.20
924.13	227.23
924.44	227.23
924.74	227.25
925.04	227.27
925.34	227.27
925.64	227.20
925.94	227.20
926.24	227.30
926.55	227.28
926.85	227.32
927.15	227.33
927.45	227.35
927.75	227.34
928.05	227.33
928.35	227.31
928.65	227.34
928.95	227.35
929.26	227.26
929.56	227.30
929.86	227.32
930.16	227.29
930.46	227.27
930.76	227.26
931.06	227.19
931.36	227.14
931.66	227.17
931.96	227.19
932.26	227.21
932.56	227.14
932.86	227.16
933.16	227.15
933.46	227.13
933.76	227.10
934.06	227.14
934.36	227.21
934.66	227.22
934.96	227.20
935.26	227.20
935.56	227.23
935.86	227.17
936.16	227.14
936.46	227.12
936.76	227.12
937.06	227.09
937.36	227.09
937.66	227.11
937.96	227.10
938.26	227.05
938.56	227.03
938.86	227.05
939.16	227.07
939.46	227.09
939.76	227.09
940.06	227.07
940.35	227.04
940.65	226.94
940.95	226.94
941.25	226.89
941.55	226.86
941.85	226.84
942.15	226.89
942.45	226.94
942.75	226.94
943.04	226.94
943.34	226.98
943.64	226.98
943.94	226.94
944.24	226.93
944.54	226.95
944.84	226.96
945.13	226.92
945.43	226.87
945.73	226.85
946.03	226.84
946.33	226.83
946.62	226.80
946.92	226.81
947.22	226.82
947.52	226.84
947.82	226.87
948.11	226.86
948.41	226.82
948.71	226.77
949.01	226.78
949.31	226.77
949.60	226.76
949.90	226.77
950.20	226.77
950.50	226.75
950.79	226.74
951.09	226.77
951.39	226.76
951.69	226.76
951.98	226.80
952.28	226.81
952.58	226.79
952.87	226.80
953.17	226.82
953.47	226.78
953.76	226.78
954.06	226.75
954.36	226.72
954.66	226.73
954.95	226.77
955.25	226.79
955.55	226.81
955.84	226.78
956.14	226.81
956.44	226.83
956.73	226.81
957.03	226.83
957.32	226.82
957.62	226.83
957.92	226.87
958.21	226.85
958.51	227.03
958.81	227.06
959.10	227.05
959.40	227.10
959.69	227.12
959.99	227.15
960.29	227.14
960.58	227.12
960.88	227.18
961.17	227.16
961.47	227.18
961.76	227.15
962.06	227.18
962.36	227.16
962.65	227.19
962.95	227.21
963.24	227.20
963.54	227.20
963.83	227.21
964.13	227.20
964.42	227.18
964.72	227.05
965.01	227.06
965.31	227.07
965.60	227.01
965.90	227.13
966.19	227.09
966.49	227.11
966.78	227.10
967.08	227.08
967.37	227.08
967.67	227.04
967.96	227.08
968.26	227.08
968.55	227.10
968.85	227.07
969.14	227.06
969.43	227.06
969.73	227.04
970.02	227.04
970.32	227.03
970.61	227.01
970.91	226.95
971.20	226.91
971.49	226.90
971.79	226.95
972.08	226.81
972.38	226.83
972.67	226.83
972.96	226.86
973.26	226.82
973.55	226.86
973.85	226.85
974.14	226.81
974.43	226.81
974.73	226.78
975.02	226.77
975.31	226.77
975.61	226.78
975.90	226.76
976.19	226.75
976.49	226.77
976.78	226.77
977.07	226.78
977.37	226.82
977.66	226.84
977.95	226.81
978.24	226.83
978.54	226.87
978.83	226.85
979.12	226.86
979.42	226.87
979.71	226.84
980.00	226.85
980.29	226.87
980.59	226.84
980.88	226.89
981.17	226.89
981.46	226.90
981.76	226.90
982.05	226.96
982.34	226.96
982.63	226.97
982.93	226.97
983.22	227.02
983.51	227.01
983.80	227.04
984.09	227.04
984.39	227.04
984.68	227.01
984.97	227.02
985.26	226.99
985.55	227.00
985.85	226.97
986.14	227.00
986.43	227.03
986.72	227.02
987.01	226.97
987.30	226.97
987.59	226.95
987.89	226.94
988.18	226.89
988.47	226.89
988.76	226.86
989.05	226.85
989.34	226.80
989.63	226.86
989.92	226.82
990.22	226.79
990.51	226.77
990.80	226.77
991.09	226.79
991.38	226.80
991.67	226.80
991.96	226.78
992.25	226.77
992.54	226.73
992.83	226.75
993.12	226.73
993.41	226.76
993.70	226.84
993.99	226.86
994.28	226.89
994.58	226.92
994.87	226.90
995.16	226.90
995.45	226.88
995.74	226.80
996.03	226.83
996.32	226.86
996.61	226.90
996.90	226.87
997.19	226.86
997.48	226.87
997.77	226.85
998.06	226.85
998.34	226.84
998.63	226.85
998.92	226.85
999.21	226.87
999.50	226.86
999.79	226.81
1000.08	226.80
1000.37	226.81
1000.66	226.78
1000.95	226.84
1001.24	226.86
1001.53	226.88
1001.82	226.89
1002.11	226.84
1002.40	226.87
1002.68	226.91
1002.97	227.04
1003.26	227.00
1003.55	226.98
1003.84	227.00
1004.13	227.05
1004.42	227.03
1004.71	227.02
1004.99	227.00
1005.28	227.04
1005.57	227.02
1005.86	227.01
1006.15	227.01
1006.44	226.98
1006.72	227.02
1007.01	226.98
1007.30	226.97
1007.59	226.95
1007.88	226.95
1008.17	226.97
1008.45	226.92
1008.74	226.85
1009.03	226.77
1009.32	226.80
1009.60	226.80
1009.89	226.77
1010.18	226.70
1010.47	226.70
1010.76	226.70
1011.04	226.69
1011.33	226.70
1011.62	226.71
1011.91	226.71
1012.19	226.70
1012.48	226.71
1012.77	226.69
1013.05	226.76
1013.34	226.77
1013.63	226.75
1013.92	226.77
1014.20	226.75
1014.49	226.76
1014.78	226.80
1015.06	226.75
1015.35	226.74
1015.64	226.77
1015.92	226.81
1016.21	226.84
1016.50	226.84
1016.78	226.86
1017.07	226.88
1017.36	226.85
1017.64	226.84
1017.93	226.85
1018.22	226.82
1018.50	226.80
1018.79	226.80
1019.08	226.73
1019.36	226.73
1019.65	226.72
1019.93	226.75
1020.22	226.79
1020.51	226.88
1020.79	226.85
1021.08	226.29
1021.36	226.24
1021.65	226.88
1021.94	226.67
1022.22	226.86
1022.51	226.24
1022.79	227.49
1023.08	227.16
1023.36	228.96
1023.65	226.29
>>>>>End Processed Spectral Data<<<<<
