SpectraSuite Data File
++++++++++++++++++++++++++++++++++++
Date: Tue Oct 06 12:47:09 EDT 2015
User: lab3
Dark Spectrum Present: No
Reference Spectrum Present: No
Number of Sampled Component Spectra: 1
Spectrometers: USB2E7196
Integration Time (usec): 66000 (USB2E7196)
Spectra Averaged: 1000 (USB2E7196)
Boxcar Smoothing: 10 (USB2E7196)
Correct for Electrical Dark: No (USB2E7196)
Strobe/Lamp Enabled: No (USB2E7196)
Correct for Detector Non-linearity: No (USB2E7196)
Correct for Stray Light: No (USB2E7196)
Number of Pixels in Processed Spectrum: 2048
>>>>>Begin Processed Spectral Data<<<<<
339.09	0.00
339.48	217.21
339.86	218.76
340.24	220.16
340.63	221.62
341.01	225.48
341.39	224.22
341.78	225.78
342.16	226.91
342.54	227.36
342.93	215.66
343.31	226.55
343.69	227.09
344.07	227.55
344.46	227.99
344.84	228.39
345.22	228.58
345.60	228.86
345.99	229.06
346.37	229.20
346.75	229.31
347.13	229.39
347.52	229.48
347.90	229.60
348.28	229.65
348.66	229.73
349.05	229.71
349.43	229.77
349.81	229.84
350.19	229.90
350.57	229.98
350.96	230.07
351.34	230.18
351.72	230.29
352.10	230.40
352.48	230.46
352.87	230.50
353.25	230.56
353.63	230.61
354.01	230.66
354.39	230.73
354.77	230.80
355.15	230.91
355.54	230.94
355.92	230.94
356.30	231.00
356.68	231.18
357.06	231.25
357.44	231.28
357.82	231.34
358.20	231.54
358.58	231.59
358.97	231.65
359.35	231.73
359.73	231.82
360.11	231.88
360.49	231.94
360.87	231.99
361.25	232.04
361.63	232.13
362.01	232.19
362.39	232.22
362.77	232.26
363.15	232.29
363.53	232.32
363.91	232.35
364.29	232.39
364.67	232.24
365.05	232.27
365.43	232.31
365.81	232.34
366.19	232.30
366.57	232.37
366.95	232.35
367.33	232.31
367.71	232.28
368.09	232.31
368.47	232.30
368.85	232.29
369.23	232.32
369.61	232.25
369.99	232.28
370.37	232.29
370.75	232.40
371.13	232.37
371.51	232.33
371.89	232.32
372.27	232.30
372.65	232.29
373.03	232.25
373.41	232.20
373.78	232.15
374.16	232.03
374.54	231.94
374.92	231.88
375.30	231.85
375.68	231.78
376.06	231.74
376.44	231.70
376.82	231.67
377.19	231.62
377.57	231.57
377.95	231.47
378.33	231.42
378.71	231.21
379.09	231.16
379.47	231.15
379.84	231.10
380.22	231.03
380.60	230.95
380.98	230.90
381.36	230.85
381.73	230.79
382.11	230.77
382.49	230.75
382.87	230.69
383.25	230.66
383.62	230.83
384.00	230.75
384.38	230.72
384.76	230.72
385.13	230.74
385.51	230.70
385.89	230.65
386.27	230.62
386.64	230.64
387.02	230.57
387.40	230.53
387.78	230.51
388.15	230.49
388.53	230.47
388.91	230.45
389.29	230.42
389.66	230.44
390.04	230.39
390.42	230.40
390.79	230.40
391.17	230.39
391.55	230.17
391.92	230.17
392.30	230.18
392.68	230.14
393.05	230.12
393.43	230.13
393.81	230.14
394.18	230.13
394.56	230.13
394.94	230.20
395.31	230.20
395.69	230.26
396.06	230.31
396.44	230.36
396.82	230.38
397.19	230.52
397.57	230.54
397.95	230.62
398.32	230.61
398.70	230.67
399.07	230.76
399.45	230.82
399.82	230.89
400.20	230.95
400.58	231.04
400.95	231.06
401.33	231.19
401.70	231.42
402.08	231.56
402.45	231.68
402.83	231.84
403.20	232.01
403.58	232.15
403.95	232.35
404.33	232.56
404.71	232.77
405.08	233.06
405.46	233.29
405.83	233.55
406.21	233.84
406.58	234.16
406.96	234.48
407.33	234.85
407.70	235.26
408.08	235.82
408.45	236.32
408.83	236.85
409.20	237.32
409.58	237.76
409.95	238.36
410.33	239.01
410.70	239.64
411.08	240.36
411.45	241.13
411.82	241.91
412.20	242.82
412.57	243.88
412.95	244.74
413.32	245.84
413.69	246.98
414.07	248.19
414.44	249.51
414.82	250.86
415.19	252.44
415.56	254.05
415.94	255.72
416.31	257.59
416.68	259.49
417.06	261.69
417.43	263.74
417.81	266.09
418.18	268.49
418.55	271.12
418.93	273.86
419.30	276.73
419.67	279.77
420.04	282.88
420.42	286.15
420.79	289.92
421.16	293.72
421.54	297.58
421.91	301.60
422.28	305.79
422.66	310.30
423.03	314.58
423.40	319.08
423.77	323.88
424.15	328.80
424.52	333.90
424.89	339.42
425.26	344.90
425.64	349.98
426.01	355.70
426.38	361.55
426.75	367.54
427.13	373.67
427.50	380.09
427.87	386.71
428.24	393.38
428.61	399.79
428.99	406.68
429.36	414.29
429.73	421.60
430.10	428.84
430.47	436.27
430.85	443.98
431.22	452.15
431.59	460.56
431.96	468.76
432.33	477.87
432.70	486.54
433.08	496.84
433.45	506.55
433.82	516.05
434.19	526.67
434.56	537.15
434.93	547.31
435.30	557.36
435.68	568.84
436.05	580.03
436.42	591.23
436.79	601.46
437.16	612.49
437.53	624.34
437.90	636.26
438.27	647.86
438.64	660.31
439.01	671.70
439.38	682.20
439.75	692.30
440.13	703.80
440.50	714.76
440.87	723.45
441.24	733.00
441.61	743.51
441.98	751.22
442.35	760.34
442.72	769.69
443.09	778.69
443.46	784.60
443.83	789.01
444.20	792.59
444.57	797.90
444.94	801.14
445.31	804.35
445.68	807.07
446.05	809.11
446.42	808.80
446.79	808.28
447.16	807.81
447.53	807.53
447.90	804.17
448.27	800.85
448.64	795.73
449.01	792.30
449.37	785.10
449.74	778.63
450.11	770.19
450.48	760.85
450.85	751.42
451.22	743.19
451.59	735.23
451.96	728.16
452.33	717.80
452.70	708.48
453.07	697.23
453.43	686.05
453.80	675.16
454.17	664.76
454.54	655.04
454.91	644.08
455.28	633.65
455.65	623.80
456.02	613.46
456.38	605.12
456.75	594.33
457.12	585.63
457.49	576.85
457.86	568.62
458.23	561.39
458.59	553.38
458.96	545.22
459.33	538.01
459.70	530.66
460.07	524.99
460.43	518.35
460.80	512.12
461.17	506.63
461.54	500.80
461.91	495.34
462.27	489.80
462.64	485.25
463.01	480.06
463.38	474.90
463.74	470.21
464.11	466.06
464.48	462.35
464.85	458.31
465.21	455.17
465.58	451.73
465.95	447.80
466.32	444.65
466.68	441.54
467.05	438.44
467.42	435.41
467.78	432.18
468.15	429.21
468.52	427.05
468.88	424.22
469.25	421.60
469.62	419.51
469.98	417.23
470.35	415.18
470.72	413.34
471.08	411.46
471.45	409.88
471.82	408.11
472.18	406.26
472.55	405.07
472.92	403.61
473.28	402.43
473.65	401.19
474.02	400.03
474.38	399.07
474.75	398.48
475.11	397.63
475.48	397.25
475.85	396.87
476.21	396.66
476.58	396.51
476.94	396.71
477.31	396.76
477.67	396.90
478.04	397.22
478.41	397.64
478.77	398.25
479.14	398.61
479.50	399.37
479.87	400.32
480.23	401.29
480.60	402.20
480.96	403.13
481.33	404.52
481.69	405.91
482.06	407.28
482.42	408.57
482.79	410.15
483.15	412.00
483.52	414.09
483.88	416.08
484.25	418.20
484.61	420.42
484.98	422.81
485.34	425.51
485.71	428.28
486.07	431.26
486.44	434.18
486.80	437.48
487.17	440.87
487.53	444.58
487.90	448.42
488.26	452.62
488.62	457.04
488.99	461.49
489.35	466.19
489.72	471.21
490.08	476.50
490.44	481.88
490.81	487.44
491.17	493.12
491.54	499.18
491.90	505.40
492.26	512.04
492.63	518.98
492.99	526.18
493.36	533.66
493.72	541.52
494.08	549.51
494.45	557.91
494.81	566.72
495.17	575.73
495.54	585.25
495.90	595.17
496.26	605.34
496.63	615.74
496.99	626.48
497.35	637.68
497.72	649.21
498.08	661.21
498.44	673.45
498.80	686.48
499.17	699.84
499.53	713.61
499.89	727.74
500.26	741.98
500.62	756.54
500.98	771.75
501.34	787.16
501.71	803.31
502.07	819.73
502.43	836.55
502.79	853.50
503.16	870.91
503.52	888.57
503.88	906.73
504.24	925.32
504.60	944.18
504.97	963.47
505.33	983.25
505.69	1003.92
506.05	1024.64
506.41	1045.29
506.78	1066.26
507.14	1088.01
507.50	1110.25
507.86	1132.89
508.22	1155.61
508.59	1178.20
508.95	1201.63
509.31	1225.50
509.67	1250.03
510.03	1274.35
510.39	1299.10
510.75	1323.86
511.12	1348.71
511.48	1373.54
511.84	1398.47
512.20	1423.91
512.56	1449.71
512.92	1475.29
513.28	1500.63
513.64	1526.26
514.00	1551.99
514.37	1577.86
514.73	1603.49
515.09	1628.63
515.45	1654.05
515.81	1679.52
516.17	1705.11
516.53	1729.98
516.89	1754.81
517.25	1779.71
517.61	1804.55
517.97	1829.55
518.33	1854.08
518.69	1878.53
519.05	1903.16
519.41	1927.71
519.77	1952.19
520.13	1976.36
520.49	2000.31
520.85	2024.34
521.21	2048.26
521.57	2072.29
521.93	2095.33
522.29	2118.74
522.65	2141.70
523.01	2164.47
523.37	2186.36
523.73	2208.70
524.09	2231.23
524.45	2253.77
524.81	2275.28
525.17	2296.67
525.53	2317.39
525.89	2338.47
526.25	2359.02
526.61	2378.42
526.97	2398.05
527.33	2417.06
527.68	2435.30
528.04	2452.90
528.40	2469.46
528.76	2486.52
529.12	2502.44
529.48	2518.83
529.84	2534.02
530.20	2550.14
530.56	2565.10
530.91	2580.13
531.27	2594.18
531.63	2607.25
531.99	2619.91
532.35	2631.19
532.71	2642.47
533.07	2654.02
533.42	2664.04
533.78	2674.89
534.14	2685.88
534.50	2695.43
534.86	2705.07
535.21	2712.83
535.57	2720.94
535.93	2729.37
536.29	2736.63
536.65	2743.97
537.00	2749.23
537.36	2754.87
537.72	2758.96
538.08	2762.76
538.44	2765.64
538.79	2768.86
539.15	2771.36
539.51	2773.38
539.87	2775.92
540.22	2776.48
540.58	2777.62
540.94	2778.19
541.29	2777.40
541.65	2775.14
542.01	2772.96
542.37	2769.82
542.72	2768.36
543.08	2765.39
543.44	2762.21
543.79	2757.27
544.15	2752.33
544.51	2748.07
544.87	2741.93
545.22	2735.20
545.58	2728.89
545.94	2723.28
546.29	2715.78
546.65	2707.72
547.01	2699.69
547.36	2691.32
547.72	2682.79
548.07	2673.03
548.43	2663.18
548.79	2652.23
549.14	2642.32
549.50	2632.13
549.86	2621.46
550.21	2608.97
550.57	2597.77
550.92	2584.89
551.28	2572.79
551.64	2560.90
551.99	2548.99
552.35	2537.16
552.70	2525.12
553.06	2513.22
553.41	2500.11
553.77	2486.86
554.13	2473.87
554.48	2460.02
554.84	2445.75
555.19	2432.49
555.55	2418.31
555.90	2404.34
556.26	2391.31
556.61	2377.55
556.97	2362.90
557.32	2348.54
557.68	2334.24
558.03	2319.48
558.39	2305.48
558.74	2291.63
559.10	2275.86
559.45	2260.75
559.81	2246.26
560.16	2231.42
560.52	2216.33
560.87	2202.10
561.23	2187.26
561.58	2172.69
561.94	2157.50
562.29	2142.51
562.64	2127.33
563.00	2112.35
563.35	2097.94
563.71	2083.25
564.06	2068.22
564.42	2053.76
564.77	2039.31
565.12	2025.35
565.48	2011.18
565.83	1996.74
566.19	1982.37
566.54	1968.50
566.89	1953.37
567.25	1937.79
567.60	1923.48
567.96	1908.49
568.31	1893.01
568.66	1878.41
569.02	1863.85
569.37	1849.44
569.72	1835.27
570.08	1821.05
570.43	1806.71
570.78	1791.67
571.14	1776.64
571.49	1761.94
571.84	1747.93
572.20	1732.70
572.55	1717.73
572.90	1702.26
573.26	1686.83
573.61	1671.21
573.96	1656.12
574.31	1641.68
574.67	1627.73
575.02	1612.83
575.37	1597.76
575.72	1582.54
576.08	1567.73
576.43	1552.94
576.78	1538.24
577.13	1523.62
577.49	1508.95
577.84	1494.30
578.19	1479.81
578.54	1465.40
578.90	1450.85
579.25	1435.87
579.60	1422.02
579.95	1408.09
580.30	1394.35
580.66	1380.68
581.01	1367.16
581.36	1353.48
581.71	1339.79
582.06	1326.13
582.42	1312.68
582.77	1299.62
583.12	1286.79
583.47	1273.85
583.82	1261.04
584.17	1248.10
584.53	1235.31
584.88	1222.90
585.23	1210.25
585.58	1197.87
585.93	1185.50
586.28	1173.76
586.63	1161.91
586.98	1149.95
587.34	1138.31
587.69	1126.55
588.04	1115.10
588.39	1103.80
588.74	1092.40
589.09	1081.37
589.44	1069.78
589.79	1058.80
590.14	1047.93
590.49	1037.24
590.84	1026.69
591.19	1016.25
591.54	1005.92
591.89	995.30
592.25	984.74
592.60	974.21
592.95	963.90
593.30	953.66
593.65	943.36
594.00	933.29
594.35	923.92
594.70	914.11
595.05	904.90
595.40	895.48
595.75	885.95
596.10	876.95
596.45	867.75
596.80	858.97
597.15	850.18
597.50	841.41
597.85	832.98
598.19	824.54
598.54	816.05
598.89	807.73
599.24	799.87
599.59	792.11
599.94	784.78
600.29	777.24
600.64	769.78
600.99	762.29
601.34	755.04
601.69	747.22
602.04	739.98
602.39	732.84
602.74	725.93
603.08	719.12
603.43	712.30
603.78	705.59
604.13	699.06
604.48	692.50
604.83	686.17
605.18	679.81
605.53	673.55
605.87	667.22
606.22	661.17
606.57	655.04
606.92	648.77
607.27	642.69
607.62	636.96
607.96	631.31
608.31	625.95
608.66	620.43
609.01	615.20
609.36	610.17
609.70	605.03
610.05	599.83
610.40	594.78
610.75	589.69
611.10	584.90
611.44	580.06
611.79	575.32
612.14	570.56
612.49	565.79
612.83	561.25
613.18	556.93
613.53	552.63
613.88	548.33
614.22	544.26
614.57	540.10
614.92	535.96
615.27	531.98
615.61	527.97
615.96	524.10
616.31	520.21
616.65	516.33
617.00	512.53
617.35	508.87
617.70	505.28
618.04	501.85
618.39	498.35
618.74	494.98
619.08	491.54
619.43	488.19
619.78	484.98
620.12	481.78
620.47	478.73
620.82	475.66
621.16	472.69
621.51	469.86
621.85	467.05
622.20	464.31
622.55	461.53
622.89	458.83
623.24	456.25
623.59	453.71
623.93	451.19
624.28	448.80
624.62	446.62
624.97	444.41
625.32	442.00
625.66	439.64
626.01	437.34
626.35	435.22
626.70	433.04
627.04	431.00
627.39	428.88
627.73	426.81
628.08	424.87
628.43	422.98
628.77	421.03
629.12	419.16
629.46	417.28
629.81	415.53
630.15	413.71
630.50	411.92
630.84	410.19
631.19	408.55
631.53	406.94
631.88	405.12
632.22	403.41
632.57	402.05
632.91	400.66
633.26	399.31
633.60	397.88
633.95	396.57
634.29	395.15
634.64	393.79
634.98	392.30
635.32	390.95
635.67	389.70
636.01	388.44
636.36	387.25
636.70	386.17
637.05	384.95
637.39	383.87
637.73	382.79
638.08	381.72
638.42	380.64
638.77	379.48
639.11	378.31
639.45	377.18
639.80	376.03
640.14	374.91
640.49	373.77
640.83	372.67
641.17	371.58
641.52	370.52
641.86	369.54
642.20	368.70
642.55	367.70
642.89	366.69
643.23	365.70
643.58	364.83
643.92	363.78
644.26	362.84
644.61	361.94
644.95	361.01
645.29	360.10
645.64	359.15
645.98	358.25
646.32	357.45
646.66	356.59
647.01	355.71
647.35	354.91
647.69	354.09
648.04	353.33
648.38	352.52
648.72	351.79
649.06	351.02
649.41	350.22
649.75	349.46
650.09	348.73
650.43	348.03
650.78	347.25
651.12	346.53
651.46	345.82
651.80	345.10
652.14	344.41
652.49	343.73
652.83	343.02
653.17	342.35
653.51	341.70
653.85	341.12
654.20	340.48
654.54	339.78
654.88	339.13
655.22	338.49
655.56	337.78
655.90	337.09
656.25	336.44
656.59	335.79
656.93	335.21
657.27	334.65
657.61	333.99
657.95	333.42
658.29	332.85
658.64	332.35
658.98	331.76
659.32	331.17
659.66	330.60
660.00	330.06
660.34	329.51
660.68	328.93
661.02	328.30
661.36	327.71
661.70	327.17
662.05	326.65
662.39	326.17
662.73	325.75
663.07	325.35
663.41	324.88
663.75	324.35
664.09	323.81
664.43	323.23
664.77	322.74
665.11	322.14
665.45	321.60
665.79	321.04
666.13	320.51
666.47	319.97
666.81	319.39
667.15	318.81
667.49	318.34
667.83	317.91
668.17	317.47
668.51	317.03
668.85	316.60
669.19	316.23
669.53	315.69
669.87	315.19
670.21	314.68
670.55	314.21
670.89	313.87
671.23	313.44
671.57	313.02
671.91	312.63
672.25	312.28
672.58	311.92
672.92	311.47
673.26	311.08
673.60	310.69
673.94	310.34
674.28	309.97
674.62	309.60
674.96	309.13
675.30	308.71
675.64	308.28
675.97	307.84
676.31	307.34
676.65	306.91
676.99	306.55
677.33	306.09
677.67	305.65
678.01	305.10
678.34	304.66
678.68	304.25
679.02	303.79
679.36	303.35
679.70	302.87
680.04	302.43
680.37	302.00
680.71	301.58
681.05	301.17
681.39	300.73
681.73	300.26
682.06	299.80
682.40	299.40
682.74	299.02
683.08	298.67
683.42	298.23
683.75	297.82
684.09	297.31
684.43	296.86
684.77	296.42
685.10	296.05
685.44	295.67
685.78	295.24
686.12	294.83
686.45	294.38
686.79	293.93
687.13	293.53
687.46	293.09
687.80	292.66
688.14	292.17
688.48	291.74
688.81	291.31
689.15	290.97
689.49	290.50
689.82	290.04
690.16	289.51
690.50	289.08
690.83	288.65
691.17	288.20
691.51	287.79
691.84	287.42
692.18	286.98
692.52	286.50
692.85	286.07
693.19	285.73
693.52	285.33
693.86	284.93
694.20	284.51
694.53	284.10
694.87	283.65
695.21	283.22
695.54	282.81
695.88	282.36
696.21	281.86
696.55	281.44
696.88	281.02
697.22	280.61
697.56	280.22
697.89	279.76
698.23	279.36
698.56	278.91
698.90	278.49
699.23	278.06
699.57	277.66
699.90	277.22
700.24	276.72
700.58	276.31
700.91	275.96
701.25	275.72
701.58	275.39
701.92	275.08
702.25	274.72
702.59	274.31
702.92	273.93
703.26	273.56
703.59	273.18
703.93	272.93
704.26	272.57
704.60	272.17
704.93	271.78
705.26	271.38
705.60	271.05
705.93	270.61
706.27	270.30
706.60	269.98
706.94	269.67
707.27	269.30
707.61	268.92
707.94	268.51
708.27	267.99
708.61	267.55
708.94	267.15
709.28	266.78
709.61	266.42
709.94	266.10
710.28	265.78
710.61	265.49
710.95	265.02
711.28	264.81
711.61	264.48
711.95	264.21
712.28	263.89
712.61	263.53
712.95	263.32
713.28	263.07
713.61	262.72
713.95	262.37
714.28	262.07
714.61	261.74
714.95	261.45
715.28	261.14
715.61	260.85
715.95	260.58
716.28	260.28
716.61	260.02
716.95	259.68
717.28	259.37
717.61	259.05
717.94	258.76
718.28	258.35
718.61	258.06
718.94	257.75
719.27	257.49
719.61	257.26
719.94	256.96
720.27	256.59
720.60	256.32
720.94	256.07
721.27	255.83
721.60	255.61
721.93	255.35
722.27	255.16
722.60	254.94
722.93	254.66
723.26	254.43
723.59	254.18
723.93	253.99
724.26	253.77
724.59	253.54
724.92	253.33
725.25	253.18
725.59	252.96
725.92	252.78
726.25	252.55
726.58	252.32
726.91	252.08
727.24	251.89
727.57	251.67
727.91	251.41
728.24	251.22
728.57	251.00
728.90	250.82
729.23	250.56
729.56	250.42
729.89	250.22
730.22	250.01
730.55	249.80
730.89	249.59
731.22	249.38
731.55	249.18
731.88	249.00
732.21	248.76
732.54	248.56
732.87	248.36
733.20	248.19
733.53	248.01
733.86	247.85
734.19	247.64
734.52	247.49
734.85	247.46
735.18	247.25
735.51	247.13
735.84	246.97
736.17	246.86
736.50	246.60
736.83	246.64
737.16	246.47
737.49	246.32
737.82	246.15
738.15	246.02
738.48	245.85
738.81	245.68
739.14	245.50
739.47	245.33
739.80	245.18
740.13	245.03
740.46	244.85
740.79	244.68
741.12	244.54
741.45	244.36
741.78	244.11
742.11	244.01
742.44	243.81
742.77	243.68
743.10	243.49
743.43	243.34
743.75	243.02
744.08	243.15
744.41	242.98
744.74	242.84
745.07	242.67
745.40	242.57
745.73	242.52
746.06	242.39
746.39	242.29
746.71	242.16
747.04	242.01
747.37	241.88
747.70	241.79
748.03	241.66
748.36	241.56
748.68	241.44
749.01	241.28
749.34	241.18
749.67	241.06
750.00	240.97
750.33	241.00
750.65	240.89
750.98	240.52
751.31	240.43
751.64	240.32
751.97	240.31
752.29	240.17
752.62	239.97
752.95	239.84
753.28	239.70
753.60	239.58
753.93	239.52
754.26	239.43
754.59	239.25
754.91	239.12
755.24	239.00
755.57	238.89
755.90	238.78
756.22	238.65
756.55	238.51
756.88	238.37
757.20	238.16
757.53	238.01
757.86	237.91
758.19	237.82
758.51	237.72
758.84	237.55
759.17	237.43
759.49	237.36
759.82	237.37
760.15	237.30
760.47	237.21
760.80	237.07
761.13	237.01
761.45	236.94
761.78	236.87
762.11	236.79
762.43	236.69
762.76	236.62
763.08	236.56
763.41	236.50
763.74	236.44
764.06	236.35
764.39	236.28
764.71	236.20
765.04	236.10
765.37	236.01
765.69	235.93
766.02	235.85
766.34	235.77
766.67	235.63
767.00	235.59
767.32	235.61
767.65	235.66
767.97	235.57
768.30	235.51
768.62	235.44
768.95	235.37
769.27	235.31
769.60	235.26
769.92	235.16
770.25	235.07
770.57	234.97
770.90	234.91
771.22	234.84
771.55	234.78
771.87	234.74
772.20	234.70
772.52	234.78
772.85	234.94
773.17	234.90
773.50	234.83
773.82	234.75
774.15	234.60
774.47	234.44
774.80	234.36
775.12	234.32
775.45	234.27
775.77	234.23
776.09	234.19
776.42	234.15
776.74	234.17
777.07	234.12
777.39	234.09
777.72	234.03
778.04	234.01
778.36	233.95
778.69	233.91
779.01	233.87
779.33	233.69
779.66	233.45
779.98	233.40
780.31	233.38
780.63	233.41
780.95	233.42
781.28	233.39
781.60	233.34
781.92	233.31
782.25	233.27
782.57	233.23
782.89	233.18
783.22	233.13
783.54	233.04
783.86	233.04
784.19	233.00
784.51	233.03
784.83	232.98
785.16	232.94
785.48	232.92
785.80	232.88
786.12	232.86
786.45	232.81
786.77	232.79
787.09	232.75
787.42	232.65
787.74	232.62
788.06	232.61
788.38	232.58
788.71	232.54
789.03	232.50
789.35	232.50
789.67	232.45
789.99	232.44
790.32	232.39
790.64	232.37
790.96	232.50
791.28	232.42
791.61	232.38
791.93	232.36
792.25	232.32
792.57	232.42
792.89	232.37
793.21	232.36
793.54	232.32
793.86	232.27
794.18	232.26
794.50	232.20
794.82	232.18
795.14	232.18
795.47	232.19
795.79	232.19
796.11	232.11
796.43	232.09
796.75	232.06
797.07	232.05
797.39	232.02
797.71	231.85
798.04	231.84
798.36	231.83
798.68	231.81
799.00	231.80
799.32	231.69
799.64	231.70
799.96	231.68
800.28	231.69
800.60	231.67
800.92	231.66
801.24	231.64
801.56	231.63
801.89	231.59
802.21	231.57
802.53	231.51
802.85	231.54
803.17	231.60
803.49	231.55
803.81	231.52
804.13	231.49
804.45	231.46
804.77	231.46
805.09	231.44
805.41	231.40
805.73	231.36
806.05	231.32
806.37	231.28
806.69	231.24
807.01	231.20
807.33	231.19
807.65	231.12
807.97	231.17
808.28	231.13
808.60	231.11
808.92	231.07
809.24	231.17
809.56	231.13
809.88	231.06
810.20	231.06
810.52	231.08
810.84	231.04
811.16	231.01
811.48	230.99
811.80	231.04
812.12	231.02
812.43	231.04
812.75	231.04
813.07	231.02
813.39	231.01
813.71	230.98
814.03	230.96
814.35	230.96
814.67	230.89
814.98	230.86
815.30	230.84
815.62	230.81
815.94	230.68
816.26	230.69
816.58	230.65
816.89	230.65
817.21	230.59
817.53	230.58
817.85	230.57
818.17	230.56
818.48	230.48
818.80	230.51
819.12	230.46
819.44	230.42
819.76	230.39
820.07	230.39
820.39	230.38
820.71	230.38
821.03	230.38
821.34	230.35
821.66	230.36
821.98	230.38
822.30	230.36
822.61	230.46
822.93	230.42
823.25	230.40
823.57	230.38
823.88	230.39
824.20	230.40
824.52	230.43
824.83	230.41
825.15	230.38
825.47	230.35
825.79	230.36
826.10	230.34
826.42	230.33
826.74	230.32
827.05	230.31
827.37	230.30
827.69	230.28
828.00	230.30
828.32	230.30
828.64	230.26
828.95	230.36
829.27	230.30
829.58	230.30
829.90	230.32
830.22	230.34
830.53	230.31
830.85	230.28
831.17	230.23
831.48	230.23
831.80	230.25
832.11	230.23
832.43	230.20
832.75	230.20
833.06	230.31
833.38	230.27
833.69	230.26
834.01	230.26
834.32	230.26
834.64	230.22
834.96	230.21
835.27	230.21
835.59	230.13
835.90	230.10
836.22	230.09
836.53	230.04
836.85	230.00
837.16	230.18
837.48	230.17
837.79	230.22
838.11	230.21
838.42	230.20
838.74	230.22
839.05	230.20
839.37	230.19
839.68	230.06
840.00	230.05
840.31	230.06
840.63	230.04
840.94	230.02
841.26	230.01
841.57	230.00
841.88	230.00
842.20	229.98
842.51	229.95
842.83	229.93
843.14	230.09
843.46	230.09
843.77	229.97
844.08	229.96
844.40	229.91
844.71	229.89
845.03	229.87
845.34	229.85
845.65	229.84
845.97	229.84
846.28	229.86
846.60	229.86
846.91	229.84
847.22	229.83
847.54	229.86
847.85	229.85
848.16	229.83
848.48	229.80
848.79	229.87
849.10	229.90
849.42	229.91
849.73	229.74
850.04	229.74
850.36	229.69
850.67	229.71
850.98	229.72
851.30	229.73
851.61	229.71
851.92	229.71
852.23	229.76
852.55	229.76
852.86	229.77
853.17	229.78
853.49	229.81
853.80	229.84
854.11	229.85
854.42	229.88
854.74	229.87
855.05	229.88
855.36	229.79
855.67	229.78
855.99	229.78
856.30	229.99
856.61	229.98
856.92	229.98
857.23	229.98
857.55	229.96
857.86	229.95
858.17	230.00
858.48	229.97
858.79	229.92
859.11	229.94
859.42	229.93
859.73	229.90
860.04	229.88
860.35	229.84
860.66	229.78
860.98	229.77
861.29	229.80
861.60	229.79
861.91	229.82
862.22	229.79
862.53	229.77
862.84	229.56
863.16	229.59
863.47	229.55
863.78	229.54
864.09	229.55
864.40	229.56
864.71	229.54
865.02	229.56
865.33	229.55
865.64	229.52
865.95	229.51
866.27	229.61
866.58	229.60
866.89	229.63
867.20	229.62
867.51	229.59
867.82	229.57
868.13	229.62
868.44	229.58
868.75	229.62
869.06	229.62
869.37	229.63
869.68	229.58
869.99	229.61
870.30	229.61
870.61	229.62
870.92	229.60
871.23	229.58
871.54	229.59
871.85	229.63
872.16	229.64
872.47	229.64
872.78	229.55
873.09	229.55
873.40	229.52
873.71	229.54
874.02	229.55
874.33	229.52
874.64	229.49
874.95	229.52
875.26	229.49
875.56	229.48
875.87	229.48
876.18	229.47
876.49	229.65
876.80	229.62
877.11	229.60
877.42	229.60
877.73	229.62
878.04	229.58
878.35	229.57
878.66	229.57
878.96	229.56
879.27	229.56
879.58	229.56
879.89	229.56
880.20	229.61
880.51	229.61
880.82	229.63
881.12	229.63
881.43	229.59
881.74	229.57
882.05	229.55
882.36	229.56
882.67	229.58
882.97	229.40
883.28	229.40
883.59	229.40
883.90	229.41
884.21	229.43
884.51	229.43
884.82	229.41
885.13	229.41
885.44	229.41
885.74	229.41
886.05	229.40
886.36	229.41
886.67	229.34
886.98	229.43
887.28	229.44
887.59	229.44
887.90	229.45
888.20	229.44
888.51	229.47
888.82	229.44
889.13	229.46
889.43	229.59
889.74	229.58
890.05	229.57
890.35	229.55
890.66	229.52
890.97	229.50
891.28	229.49
891.58	229.48
891.89	229.49
892.20	229.47
892.50	229.44
892.81	229.42
893.12	229.42
893.42	229.32
893.73	229.31
894.04	229.32
894.34	229.33
894.65	229.33
894.95	229.31
895.26	229.31
895.57	229.38
895.87	229.21
896.18	229.25
896.48	229.27
896.79	229.26
897.10	229.28
897.40	229.29
897.71	229.31
898.01	229.29
898.32	229.30
898.63	229.30
898.93	229.31
899.24	229.32
899.54	229.31
899.85	229.31
900.15	229.31
900.46	229.30
900.76	229.32
901.07	229.30
901.38	229.30
901.68	229.32
901.99	229.23
902.29	229.23
902.60	229.21
902.90	229.18
903.21	229.18
903.51	229.17
903.82	229.20
904.12	229.20
904.43	229.21
904.73	229.21
905.03	229.22
905.34	229.39
905.64	229.38
905.95	229.38
906.25	229.39
906.56	229.38
906.86	229.37
907.17	229.36
907.47	229.38
907.77	229.37
908.08	229.33
908.38	229.34
908.69	229.36
908.99	229.40
909.30	229.42
909.60	229.42
909.90	229.40
910.21	229.36
910.51	229.32
910.81	229.32
911.12	229.32
911.42	229.31
911.73	229.12
912.03	229.14
912.33	229.18
912.64	229.15
912.94	229.14
913.24	229.12
913.55	229.11
913.85	229.10
914.15	229.13
914.46	229.16
914.76	229.15
915.06	229.13
915.37	229.09
915.67	229.08
915.97	229.08
916.27	229.06
916.58	229.07
916.88	229.08
917.18	229.08
917.49	229.20
917.79	229.19
918.09	229.23
918.39	229.28
918.70	229.26
919.00	229.26
919.30	229.34
919.60	229.33
919.91	229.32
920.21	229.34
920.51	229.30
920.81	229.27
921.12	229.30
921.42	229.30
921.72	229.31
922.02	229.32
922.32	229.35
922.63	229.36
922.93	229.46
923.23	229.46
923.53	229.45
923.83	229.34
924.13	229.36
924.44	229.34
924.74	229.37
925.04	229.41
925.34	229.41
925.64	229.35
925.94	229.36
926.24	229.46
926.55	229.43
926.85	229.46
927.15	229.46
927.45	229.46
927.75	229.46
928.05	229.46
928.35	229.44
928.65	229.47
928.95	229.49
929.26	229.40
929.56	229.44
929.86	229.47
930.16	229.46
930.46	229.44
930.76	229.44
931.06	229.35
931.36	229.30
931.66	229.33
931.96	229.34
932.26	229.34
932.56	229.27
932.86	229.29
933.16	229.29
933.46	229.29
933.76	229.26
934.06	229.29
934.36	229.35
934.66	229.34
934.96	229.31
935.26	229.31
935.56	229.33
935.86	229.28
936.16	229.24
936.46	229.23
936.76	229.23
937.06	229.21
937.36	229.22
937.66	229.24
937.96	229.23
938.26	229.19
938.56	229.18
938.86	229.19
939.16	229.22
939.46	229.22
939.76	229.24
940.06	229.24
940.35	229.20
940.65	229.11
940.95	229.12
941.25	229.08
941.55	229.06
941.85	229.04
942.15	229.08
942.45	229.14
942.75	229.12
943.04	229.12
943.34	229.15
943.64	229.13
943.94	229.11
944.24	229.11
944.54	229.13
944.84	229.12
945.13	229.09
945.43	229.07
945.73	229.06
946.03	229.04
946.33	229.02
946.62	229.02
946.92	229.02
947.22	229.03
947.52	229.06
947.82	229.07
948.11	229.07
948.41	229.03
948.71	228.97
949.01	229.00
949.31	228.98
949.60	228.96
949.90	228.99
950.20	228.97
950.50	228.96
950.79	228.94
951.09	228.96
951.39	228.96
951.69	228.94
951.98	228.97
952.28	228.97
952.58	228.96
952.87	228.97
953.17	229.00
953.47	228.98
953.76	228.97
954.06	228.94
954.36	228.92
954.66	228.92
954.95	228.97
955.25	228.97
955.55	228.99
955.84	228.97
956.14	228.98
956.44	228.99
956.73	228.97
957.03	229.00
957.32	229.01
957.62	229.00
957.92	229.04
958.21	229.02
958.51	229.21
958.81	229.24
959.10	229.27
959.40	229.30
959.69	229.31
959.99	229.35
960.29	229.35
960.58	229.35
960.88	229.41
961.17	229.38
961.47	229.40
961.76	229.38
962.06	229.41
962.36	229.39
962.65	229.40
962.95	229.41
963.24	229.38
963.54	229.39
963.83	229.40
964.13	229.39
964.42	229.37
964.72	229.24
965.01	229.23
965.31	229.21
965.60	229.16
965.90	229.27
966.19	229.23
966.49	229.24
966.78	229.24
967.08	229.23
967.37	229.24
967.67	229.20
967.96	229.24
968.26	229.23
968.55	229.26
968.85	229.26
969.14	229.25
969.43	229.25
969.73	229.23
970.02	229.23
970.32	229.21
970.61	229.18
970.91	229.12
971.20	229.10
971.49	229.09
971.79	229.11
972.08	228.98
972.38	228.99
972.67	228.98
972.96	229.01
973.26	228.96
973.55	229.02
973.85	229.01
974.14	228.98
974.43	228.98
974.73	228.94
975.02	228.92
975.31	228.93
975.61	228.93
975.90	228.92
976.19	228.91
976.49	228.93
976.78	228.94
977.07	228.95
977.37	228.96
977.66	228.97
977.95	228.95
978.24	228.96
978.54	228.99
978.83	228.97
979.12	228.96
979.42	228.97
979.71	228.91
980.00	228.90
980.29	228.91
980.59	228.89
980.88	228.95
981.17	228.95
981.46	228.95
981.76	228.95
982.05	229.00
982.34	229.01
982.63	229.02
982.93	229.02
983.22	229.06
983.51	229.06
983.80	229.09
984.09	229.10
984.39	229.09
984.68	229.07
984.97	229.09
985.26	229.09
985.55	229.10
985.85	229.08
986.14	229.11
986.43	229.13
986.72	229.12
987.01	229.06
987.30	229.06
987.59	229.05
987.89	229.05
988.18	228.98
988.47	228.97
988.76	228.96
989.05	228.94
989.34	228.92
989.63	228.95
989.92	228.92
990.22	228.90
990.51	228.90
990.80	228.89
991.09	228.90
991.38	228.91
991.67	228.89
991.96	228.87
992.25	228.88
992.54	228.83
992.83	228.84
993.12	228.83
993.41	228.85
993.70	228.92
993.99	228.96
994.28	228.99
994.58	229.02
994.87	229.00
995.16	228.99
995.45	228.98
995.74	228.92
996.03	228.96
996.32	228.97
996.61	229.00
996.90	229.00
997.19	228.99
997.48	229.00
997.77	228.98
998.06	229.01
998.34	228.99
998.63	229.00
998.92	229.00
999.21	229.03
999.50	229.03
999.79	228.96
1000.08	228.95
1000.37	228.94
1000.66	228.90
1000.95	228.95
1001.24	228.96
1001.53	228.98
1001.82	228.97
1002.11	228.92
1002.40	228.95
1002.68	228.98
1002.97	229.10
1003.26	229.07
1003.55	229.04
1003.84	229.05
1004.13	229.09
1004.42	229.09
1004.71	229.09
1004.99	229.07
1005.28	229.11
1005.57	229.10
1005.86	229.08
1006.15	229.07
1006.44	229.04
1006.72	229.06
1007.01	229.02
1007.30	229.03
1007.59	229.01
1007.88	229.01
1008.17	229.03
1008.45	228.99
1008.74	228.93
1009.03	228.85
1009.32	228.85
1009.60	228.84
1009.89	228.83
1010.18	228.77
1010.47	228.76
1010.76	228.76
1011.04	228.77
1011.33	228.75
1011.62	228.76
1011.91	228.77
1012.19	228.78
1012.48	228.79
1012.77	228.79
1013.05	228.85
1013.34	228.85
1013.63	228.84
1013.92	228.85
1014.20	228.82
1014.49	228.83
1014.78	228.84
1015.06	228.79
1015.35	228.80
1015.64	228.84
1015.92	228.86
1016.21	228.88
1016.50	228.88
1016.78	228.91
1017.07	228.91
1017.36	228.88
1017.64	228.86
1017.93	228.87
1018.22	228.85
1018.50	228.85
1018.79	228.84
1019.08	228.78
1019.36	228.79
1019.65	228.77
1019.93	228.81
1020.22	228.85
1020.51	228.94
1020.79	228.92
1021.08	228.60
1021.36	228.36
1021.65	228.78
1021.94	228.86
1022.22	228.97
1022.51	228.40
1022.79	229.53
1023.08	229.18
1023.36	230.87
1023.65	228.48
>>>>>End Processed Spectral Data<<<<<
