SpectraSuite Data File
++++++++++++++++++++++++++++++++++++
Date: Tue Oct 06 14:48:48 EDT 2015
User: lab3
Dark Spectrum Present: No
Reference Spectrum Present: No
Number of Sampled Component Spectra: 1
Spectrometers: USB2E7196
Integration Time (usec): 66000 (USB2E7196)
Spectra Averaged: 1000 (USB2E7196)
Boxcar Smoothing: 10 (USB2E7196)
Correct for Electrical Dark: No (USB2E7196)
Strobe/Lamp Enabled: No (USB2E7196)
Correct for Detector Non-linearity: No (USB2E7196)
Correct for Stray Light: No (USB2E7196)
Number of Pixels in Processed Spectrum: 2048
>>>>>Begin Processed Spectral Data<<<<<
339.09	0.00
339.48	214.88
339.86	216.49
340.24	217.80
340.63	219.05
341.01	223.22
341.39	221.69
341.78	223.32
342.16	224.68
342.54	224.92
342.93	213.41
343.31	224.18
343.69	224.72
344.07	225.17
344.46	225.62
344.84	226.03
345.22	226.22
345.60	226.50
345.99	226.71
346.37	226.85
346.75	226.96
347.13	227.05
347.52	227.12
347.90	227.24
348.28	227.29
348.66	227.37
349.05	227.35
349.43	227.43
349.81	227.50
350.19	227.56
350.57	227.64
350.96	227.74
351.34	227.84
351.72	227.95
352.10	228.07
352.48	228.12
352.87	228.17
353.25	228.24
353.63	228.30
354.01	228.36
354.39	228.43
354.77	228.52
355.15	228.65
355.54	228.69
355.92	228.68
356.30	228.76
356.68	228.94
357.06	229.01
357.44	229.04
357.82	229.10
358.20	229.32
358.58	229.39
358.97	229.44
359.35	229.54
359.73	229.64
360.11	229.69
360.49	229.76
360.87	229.80
361.25	229.87
361.63	229.97
362.01	230.02
362.39	230.05
362.77	230.09
363.15	230.10
363.53	230.13
363.91	230.18
364.29	230.20
364.67	230.04
365.05	230.07
365.43	230.11
365.81	230.15
366.19	230.09
366.57	230.16
366.95	230.17
367.33	230.12
367.71	230.10
368.09	230.13
368.47	230.12
368.85	230.11
369.23	230.13
369.61	230.06
369.99	230.10
370.37	230.11
370.75	230.24
371.13	230.21
371.51	230.18
371.89	230.16
372.27	230.16
372.65	230.14
373.03	230.10
373.41	230.06
373.78	230.01
374.16	229.88
374.54	229.79
374.92	229.74
375.30	229.70
375.68	229.63
376.06	229.60
376.44	229.54
376.82	229.51
377.19	229.47
377.57	229.42
377.95	229.32
378.33	229.26
378.71	229.05
379.09	229.00
379.47	228.97
379.84	228.91
380.22	228.83
380.60	228.76
380.98	228.72
381.36	228.67
381.73	228.60
382.11	228.58
382.49	228.54
382.87	228.48
383.25	228.44
383.62	228.61
384.00	228.53
384.38	228.50
384.76	228.50
385.13	228.52
385.51	228.48
385.89	228.42
386.27	228.38
386.64	228.38
387.02	228.33
387.40	228.28
387.78	228.27
388.15	228.24
388.53	228.21
388.91	228.20
389.29	228.16
389.66	228.17
390.04	228.14
390.42	228.16
390.79	228.15
391.17	228.14
391.55	227.92
391.92	227.92
392.30	227.93
392.68	227.88
393.05	227.86
393.43	227.86
393.81	227.87
394.18	227.86
394.56	227.87
394.94	227.92
395.31	227.93
395.69	228.00
396.06	228.06
396.44	228.11
396.82	228.13
397.19	228.26
397.57	228.29
397.95	228.35
398.32	228.33
398.70	228.41
399.07	228.51
399.45	228.57
399.82	228.65
400.20	228.71
400.58	228.80
400.95	228.82
401.33	228.94
401.70	229.17
402.08	229.33
402.45	229.47
402.83	229.64
403.20	229.81
403.58	229.94
403.95	230.15
404.33	230.38
404.71	230.59
405.08	230.89
405.46	231.14
405.83	231.43
406.21	231.74
406.58	232.06
406.96	232.39
407.33	232.77
407.70	233.20
408.08	233.77
408.45	234.28
408.83	234.84
409.20	235.35
409.58	235.82
409.95	236.44
410.33	237.13
410.70	237.77
411.08	238.54
411.45	239.35
411.82	240.17
412.20	241.09
412.57	242.20
412.95	243.09
413.32	244.24
413.69	245.41
414.07	246.65
414.44	248.04
414.82	249.45
415.19	251.09
415.56	252.76
415.94	254.49
416.31	256.43
416.68	258.40
417.06	260.66
417.43	262.77
417.81	265.20
418.18	267.69
418.55	270.40
418.93	273.22
419.30	276.17
419.67	279.30
420.04	282.53
420.42	285.93
420.79	289.82
421.16	293.75
421.54	297.73
421.91	301.90
422.28	306.22
422.66	310.87
423.03	315.27
423.40	319.93
423.77	324.89
424.15	329.97
424.52	335.22
424.89	340.92
425.26	346.59
425.64	351.83
426.01	357.72
426.38	363.74
426.75	369.94
427.13	376.28
427.50	382.91
427.87	389.76
428.24	396.63
428.61	403.23
428.99	410.34
429.36	418.16
429.73	425.67
430.10	433.10
430.47	440.76
430.85	448.67
431.22	457.08
431.59	465.69
431.96	474.09
432.33	483.47
432.70	492.39
433.08	502.98
433.45	512.98
433.82	522.78
434.19	533.74
434.56	544.52
434.93	554.99
435.30	565.38
435.68	577.19
436.05	588.76
436.42	600.33
436.79	610.92
437.16	622.33
437.53	634.61
437.90	646.97
438.27	658.96
438.64	671.90
439.01	683.69
439.38	694.62
439.75	705.13
440.13	717.08
440.50	728.45
440.87	737.47
441.24	747.40
441.61	758.33
441.98	766.42
442.35	775.95
442.72	785.70
443.09	795.09
443.46	801.28
443.83	805.91
444.20	809.72
444.57	815.30
444.94	818.74
445.31	822.18
445.68	825.07
446.05	827.29
446.42	827.11
446.79	826.73
447.16	826.36
447.53	826.18
447.90	822.82
448.27	819.51
448.64	814.33
449.01	810.87
449.37	803.47
449.74	796.83
450.11	788.20
450.48	778.62
450.85	768.94
451.22	760.54
451.59	752.37
451.96	745.09
452.33	734.44
452.70	724.87
453.07	713.24
453.43	701.74
453.80	690.52
454.17	679.77
454.54	669.70
454.91	658.33
455.28	647.54
455.65	637.33
456.02	626.65
456.38	618.02
456.75	606.85
457.12	597.86
457.49	588.73
457.86	580.17
458.23	572.68
458.59	564.33
458.96	555.80
459.33	548.33
459.70	540.66
460.07	534.70
460.43	527.75
460.80	521.26
461.17	515.53
461.54	509.44
461.91	503.75
462.27	497.95
462.64	493.24
463.01	487.82
463.38	482.44
463.74	477.54
464.11	473.21
464.48	469.34
464.85	465.13
465.21	461.86
465.58	458.24
465.95	454.12
466.32	450.83
466.68	447.60
467.05	444.34
467.42	441.20
467.78	437.86
468.15	434.79
468.52	432.52
468.88	429.55
469.25	426.82
469.62	424.62
469.98	422.24
470.35	420.09
470.72	418.19
471.08	416.23
471.45	414.58
471.82	412.72
472.18	410.78
472.55	409.51
472.92	407.97
473.28	406.75
473.65	405.44
474.02	404.23
474.38	403.20
474.75	402.56
475.11	401.66
475.48	401.23
475.85	400.81
476.21	400.54
476.58	400.36
476.94	400.54
477.31	400.55
477.67	400.67
478.04	400.94
478.41	401.32
478.77	401.89
479.14	402.21
479.50	402.96
479.87	403.92
480.23	404.88
480.60	405.81
480.96	406.74
481.33	408.16
481.69	409.53
482.06	410.93
482.42	412.22
482.79	413.80
483.15	415.65
483.52	417.73
483.88	419.76
484.25	421.91
484.61	424.16
484.98	426.57
485.34	429.29
485.71	432.12
486.07	435.13
486.44	438.07
486.80	441.39
487.17	444.76
487.53	448.50
487.90	452.37
488.26	456.64
488.62	461.08
488.99	465.54
489.35	470.27
489.72	475.35
490.08	480.68
490.44	486.12
490.81	491.70
491.17	497.44
491.54	503.58
491.90	509.85
492.26	516.53
492.63	523.53
492.99	530.78
493.36	538.31
493.72	546.28
494.08	554.41
494.45	562.94
494.81	571.86
495.17	580.97
495.54	590.62
495.90	600.63
496.26	610.94
496.63	621.47
496.99	632.36
497.35	643.65
497.72	655.31
498.08	667.43
498.44	679.82
498.80	692.99
499.17	706.48
499.53	720.46
499.89	734.76
500.26	749.18
500.62	763.87
500.98	779.28
501.34	794.83
501.71	811.12
502.07	827.67
502.43	844.69
502.79	861.84
503.16	879.45
503.52	897.33
503.88	915.63
504.24	934.45
504.60	953.47
504.97	972.95
505.33	992.88
505.69	1013.74
506.05	1034.70
506.41	1055.50
506.78	1076.65
507.14	1098.56
507.50	1120.98
507.86	1143.86
508.22	1166.87
508.59	1189.70
508.95	1213.34
509.31	1237.43
509.67	1262.18
510.03	1286.89
510.39	1311.99
510.75	1337.06
511.12	1362.22
511.48	1387.37
511.84	1412.53
512.20	1438.14
512.56	1464.26
512.92	1490.12
513.28	1515.70
513.64	1541.65
514.00	1567.70
514.37	1593.91
514.73	1619.80
515.09	1645.23
515.45	1670.93
515.81	1696.71
516.17	1722.54
516.53	1747.73
516.89	1772.83
517.25	1798.03
517.61	1822.98
517.97	1848.04
518.33	1872.78
518.69	1897.39
519.05	1922.21
519.41	1946.97
519.77	1971.63
520.13	1995.94
520.49	2020.21
520.85	2044.38
521.21	2068.43
521.57	2092.72
521.93	2115.87
522.29	2139.60
522.65	2162.78
523.01	2185.70
523.37	2207.82
523.73	2230.34
524.09	2252.97
524.45	2275.71
524.81	2297.59
525.17	2319.23
525.53	2340.24
525.89	2361.54
526.25	2382.43
526.61	2402.23
526.97	2422.10
527.33	2441.66
527.68	2460.38
528.04	2478.40
528.40	2495.50
528.76	2513.06
529.12	2529.37
529.48	2546.20
529.84	2561.70
530.20	2578.37
530.56	2593.96
530.91	2609.43
531.27	2623.91
531.63	2637.34
531.99	2650.44
532.35	2662.04
532.71	2673.71
533.07	2685.66
533.42	2695.98
533.78	2707.08
534.14	2718.48
534.50	2728.49
534.86	2738.59
535.21	2746.74
535.57	2754.88
535.93	2763.42
536.29	2770.78
536.65	2778.51
537.00	2783.99
537.36	2789.79
537.72	2793.83
538.08	2797.59
538.44	2800.39
538.79	2803.57
539.15	2806.25
539.51	2808.24
539.87	2810.91
540.22	2811.52
540.58	2812.48
540.94	2813.21
541.29	2812.41
541.65	2810.08
542.01	2807.82
542.37	2804.50
542.72	2802.85
543.08	2800.06
543.44	2797.07
543.79	2792.32
544.15	2787.34
544.51	2783.32
544.87	2777.27
545.22	2770.69
545.58	2764.26
545.94	2758.61
546.29	2751.41
546.65	2743.42
547.01	2735.58
547.36	2727.35
547.72	2719.04
548.07	2709.58
548.43	2699.79
548.79	2688.96
549.14	2679.13
549.50	2669.21
549.86	2658.66
550.21	2646.16
550.57	2634.98
550.92	2622.02
551.28	2609.64
551.64	2597.58
551.99	2585.54
552.35	2573.75
552.70	2561.65
553.06	2549.99
553.41	2537.26
553.77	2523.94
554.13	2510.95
554.48	2497.20
554.84	2482.80
555.19	2469.32
555.55	2455.15
555.90	2441.20
556.26	2428.22
556.61	2414.44
556.97	2399.62
557.32	2385.15
557.68	2371.12
558.03	2356.32
558.39	2342.41
558.74	2328.85
559.10	2313.06
559.45	2297.75
559.81	2283.15
560.16	2268.23
560.52	2252.93
560.87	2238.42
561.23	2223.54
561.58	2208.97
561.94	2193.65
562.29	2178.52
562.64	2163.48
563.00	2148.36
563.35	2133.89
563.71	2119.17
564.06	2103.98
564.42	2089.37
564.77	2074.84
565.12	2060.64
565.48	2046.47
565.83	2031.82
566.19	2017.34
566.54	2003.46
566.89	1988.37
567.25	1972.76
567.60	1958.34
567.96	1943.37
568.31	1927.83
568.66	1913.04
569.02	1898.36
569.37	1883.80
569.72	1869.55
570.08	1855.00
570.43	1840.51
570.78	1825.16
571.14	1809.82
571.49	1794.91
571.84	1780.85
572.20	1765.54
572.55	1750.37
572.90	1734.66
573.26	1719.10
573.61	1703.15
573.96	1687.83
574.31	1673.19
574.67	1658.99
575.02	1644.01
575.37	1628.72
575.72	1613.31
576.08	1598.31
576.43	1583.27
576.78	1568.29
577.13	1553.45
577.49	1538.69
577.84	1523.85
578.19	1509.23
578.54	1494.63
578.90	1479.90
579.25	1464.59
579.60	1450.50
579.95	1436.33
580.30	1422.39
580.66	1408.44
581.01	1394.75
581.36	1380.93
581.71	1366.96
582.06	1353.05
582.42	1339.35
582.77	1325.96
583.12	1312.95
583.47	1299.73
583.82	1286.61
584.17	1273.66
584.53	1260.57
584.88	1247.88
585.23	1235.08
585.58	1222.50
585.93	1209.97
586.28	1198.09
586.63	1186.06
586.98	1173.83
587.34	1162.03
587.69	1149.92
588.04	1138.26
588.39	1126.67
588.74	1114.98
589.09	1103.69
589.44	1091.95
589.79	1080.72
590.14	1069.67
590.49	1058.64
590.84	1047.96
591.19	1037.33
591.54	1026.63
591.89	1015.81
592.25	1005.03
592.60	994.19
592.95	983.62
593.30	973.08
593.65	962.44
594.00	952.16
594.35	942.52
594.70	932.39
595.05	922.99
595.40	913.37
595.75	903.62
596.10	894.31
596.45	884.89
596.80	875.84
597.15	866.74
597.50	857.72
597.85	849.09
598.19	840.34
598.54	831.66
598.89	823.14
599.24	814.99
599.59	806.88
599.94	799.32
600.29	791.54
600.64	783.84
600.99	776.16
601.34	768.67
601.69	760.64
602.04	753.20
602.39	745.88
602.74	738.78
603.08	731.76
603.43	724.78
603.78	717.91
604.13	711.20
604.48	704.49
604.83	698.03
605.18	691.52
605.53	685.22
605.87	678.76
606.22	672.58
606.57	666.38
606.92	660.10
607.27	653.93
607.62	648.11
607.96	642.40
608.31	636.96
608.66	631.37
609.01	625.99
609.36	620.84
609.70	615.58
610.05	610.26
610.40	605.11
610.75	599.86
611.10	594.95
611.44	589.98
611.79	585.14
612.14	580.23
612.49	575.33
612.83	570.58
613.18	566.12
613.53	561.62
613.88	557.19
614.22	552.99
614.57	548.64
614.92	544.33
615.27	540.14
615.61	535.96
615.96	531.93
616.31	527.94
616.65	523.94
617.00	520.03
617.35	516.24
617.70	512.52
618.04	508.97
618.39	505.35
618.74	501.86
619.08	498.30
619.43	494.86
619.78	491.52
620.12	488.21
620.47	485.04
620.82	481.89
621.16	478.80
621.51	475.83
621.85	472.92
622.20	470.07
622.55	467.21
622.89	464.43
623.24	461.74
623.59	459.08
623.93	456.46
624.28	453.97
624.62	451.68
624.97	449.33
625.32	446.87
625.66	444.40
626.01	441.97
626.35	439.75
626.70	437.45
627.04	435.34
627.39	433.14
627.73	430.96
628.08	428.90
628.43	426.86
628.77	424.79
629.12	422.86
629.46	420.88
629.81	419.03
630.15	417.12
630.50	415.24
630.84	413.44
631.19	411.69
631.53	409.99
631.88	408.09
632.22	406.33
632.57	404.88
632.91	403.43
633.26	402.04
633.60	400.57
633.95	399.21
634.29	397.68
634.64	396.28
634.98	394.74
635.32	393.33
635.67	392.01
636.01	390.70
636.36	389.40
636.70	388.25
637.05	386.99
637.39	385.82
637.73	384.65
638.08	383.52
638.42	382.40
638.77	381.18
639.11	379.92
639.45	378.74
639.80	377.51
640.14	376.33
640.49	375.11
640.83	373.95
641.17	372.79
641.52	371.70
641.86	370.62
642.20	369.72
642.55	368.66
642.89	367.61
643.23	366.58
643.58	365.68
643.92	364.59
644.26	363.57
644.61	362.63
644.95	361.66
645.29	360.67
645.64	359.66
645.98	358.71
646.32	357.87
646.66	356.96
647.01	356.02
647.35	355.16
647.69	354.28
648.04	353.46
648.38	352.57
648.72	351.74
649.06	350.94
649.41	350.09
649.75	349.27
650.09	348.53
650.43	347.74
650.78	346.94
651.12	346.17
651.46	345.43
651.80	344.70
652.14	343.95
652.49	343.26
652.83	342.51
653.17	341.81
653.51	341.10
653.85	340.48
654.20	339.86
654.54	339.13
654.88	338.46
655.22	337.81
655.56	337.10
655.90	336.41
656.25	335.72
656.59	335.06
656.93	334.46
657.27	333.87
657.61	333.23
657.95	332.63
658.29	332.03
658.64	331.50
658.98	330.88
659.32	330.27
659.66	329.69
660.00	329.13
660.34	328.56
660.68	327.98
661.02	327.34
661.36	326.70
661.70	326.13
662.05	325.58
662.39	325.05
662.73	324.61
663.07	324.19
663.41	323.69
663.75	323.13
664.09	322.58
664.43	321.95
664.77	321.42
665.11	320.82
665.45	320.26
665.79	319.69
666.13	319.13
666.47	318.60
666.81	318.01
667.15	317.40
667.49	316.91
667.83	316.46
668.17	316.00
668.51	315.56
668.85	315.15
669.19	314.77
669.53	314.25
669.87	313.75
670.21	313.26
670.55	312.79
670.89	312.47
671.23	312.05
671.57	311.64
671.91	311.27
672.25	310.91
672.58	310.56
672.92	310.12
673.26	309.73
673.60	309.34
673.94	308.96
674.28	308.61
674.62	308.24
674.96	307.79
675.30	307.39
675.64	306.97
675.97	306.51
676.31	306.01
676.65	305.57
676.99	305.21
677.33	304.72
677.67	304.28
678.01	303.73
678.34	303.28
678.68	302.86
679.02	302.37
679.36	301.92
679.70	301.45
680.04	301.01
680.37	300.56
680.71	300.13
681.05	299.74
681.39	299.31
681.73	298.83
682.06	298.37
682.40	297.92
682.74	297.53
683.08	297.17
683.42	296.75
683.75	296.33
684.09	295.80
684.43	295.37
684.77	294.92
685.10	294.54
685.44	294.14
685.78	293.72
686.12	293.32
686.45	292.87
686.79	292.40
687.13	292.00
687.46	291.56
687.80	291.13
688.14	290.63
688.48	290.18
688.81	289.76
689.15	289.40
689.49	288.95
689.82	288.48
690.16	287.95
690.50	287.51
690.83	287.09
691.17	286.63
691.51	286.21
691.84	285.82
692.18	285.37
692.52	284.92
692.85	284.48
693.19	284.12
693.52	283.71
693.86	283.32
694.20	282.90
694.53	282.49
694.87	282.04
695.21	281.62
695.54	281.22
695.88	280.76
696.21	280.26
696.55	279.84
696.88	279.42
697.22	278.99
697.56	278.59
697.89	278.12
698.23	277.71
698.56	277.28
698.90	276.87
699.23	276.42
699.57	276.00
699.90	275.55
700.24	275.06
700.58	274.64
700.91	274.28
701.25	274.03
701.58	273.71
701.92	273.38
702.25	273.01
702.59	272.58
702.92	272.21
703.26	271.81
703.59	271.41
703.93	271.17
704.26	270.81
704.60	270.42
704.93	270.04
705.26	269.65
705.60	269.31
705.93	268.87
706.27	268.56
706.60	268.24
706.94	267.93
707.27	267.54
707.61	267.18
707.94	266.77
708.27	266.23
708.61	265.78
708.94	265.37
709.28	265.01
709.61	264.65
709.94	264.32
710.28	264.03
710.61	263.74
710.95	263.26
711.28	263.04
711.61	262.71
711.95	262.43
712.28	262.09
712.61	261.72
712.95	261.49
713.28	261.23
713.61	260.86
713.95	260.51
714.28	260.21
714.61	259.88
714.95	259.58
715.28	259.25
715.61	258.96
715.95	258.68
716.28	258.37
716.61	258.09
716.95	257.76
717.28	257.43
717.61	257.09
717.94	256.81
718.28	256.39
718.61	256.10
718.94	255.77
719.27	255.50
719.61	255.27
719.94	254.97
720.27	254.61
720.60	254.35
720.94	254.08
721.27	253.84
721.60	253.62
721.93	253.34
722.27	253.16
722.60	252.94
722.93	252.66
723.26	252.43
723.59	252.16
723.93	251.96
724.26	251.75
724.59	251.52
724.92	251.30
725.25	251.14
725.59	250.92
725.92	250.74
726.25	250.51
726.58	250.28
726.91	250.05
727.24	249.85
727.57	249.63
727.91	249.39
728.24	249.20
728.57	248.97
728.90	248.80
729.23	248.53
729.56	248.40
729.89	248.22
730.22	248.00
730.55	247.81
730.89	247.58
731.22	247.36
731.55	247.15
731.88	246.97
732.21	246.72
732.54	246.50
732.87	246.32
733.20	246.13
733.53	245.95
733.86	245.79
734.19	245.58
734.52	245.44
734.85	245.38
735.18	245.17
735.51	245.05
735.84	244.88
736.17	244.77
736.50	244.50
736.83	244.53
737.16	244.36
737.49	244.21
737.82	244.04
738.15	243.91
738.48	243.75
738.81	243.57
739.14	243.40
739.47	243.25
739.80	243.08
740.13	242.94
740.46	242.75
740.79	242.57
741.12	242.42
741.45	242.23
741.78	241.98
742.11	241.89
742.44	241.70
742.77	241.58
743.10	241.40
743.43	241.26
743.75	240.93
744.08	241.06
744.41	240.90
744.74	240.76
745.07	240.58
745.40	240.48
745.73	240.41
746.06	240.29
746.39	240.18
746.71	240.04
747.04	239.88
747.37	239.76
747.70	239.66
748.03	239.53
748.36	239.44
748.68	239.32
749.01	239.14
749.34	239.02
749.67	238.89
750.00	238.81
750.33	238.82
750.65	238.71
750.98	238.34
751.31	238.25
751.64	238.15
751.97	238.14
752.29	238.00
752.62	237.80
752.95	237.68
753.28	237.54
753.60	237.43
753.93	237.36
754.26	237.28
754.59	237.11
754.91	236.98
755.24	236.83
755.57	236.73
755.90	236.61
756.22	236.49
756.55	236.34
756.88	236.19
757.20	235.97
757.53	235.81
757.86	235.70
758.19	235.61
758.51	235.50
758.84	235.32
759.17	235.21
759.49	235.14
759.82	235.12
760.15	235.05
760.47	234.94
760.80	234.81
761.13	234.74
761.45	234.66
761.78	234.59
762.11	234.54
762.43	234.44
762.76	234.36
763.08	234.31
763.41	234.24
763.74	234.18
764.06	234.10
764.39	234.03
764.71	233.95
765.04	233.85
765.37	233.76
765.69	233.68
766.02	233.61
766.34	233.52
766.67	233.39
767.00	233.36
767.32	233.39
767.65	233.42
767.97	233.33
768.30	233.27
768.62	233.19
768.95	233.10
769.27	233.03
769.60	232.99
769.92	232.88
770.25	232.79
770.57	232.68
770.90	232.63
771.22	232.57
771.55	232.52
771.87	232.47
772.20	232.41
772.52	232.52
772.85	232.68
773.17	232.63
773.50	232.57
773.82	232.47
774.15	232.33
774.47	232.17
774.80	232.12
775.12	232.06
775.45	232.02
775.77	231.98
776.09	231.95
776.42	231.90
776.74	231.93
777.07	231.90
777.39	231.88
777.72	231.82
778.04	231.80
778.36	231.75
778.69	231.71
779.01	231.69
779.33	231.49
779.66	231.24
779.98	231.19
780.31	231.17
780.63	231.21
780.95	231.22
781.28	231.17
781.60	231.11
781.92	231.09
782.25	231.06
782.57	231.01
782.89	230.97
783.22	230.93
783.54	230.84
783.86	230.82
784.19	230.77
784.51	230.79
784.83	230.73
785.16	230.69
785.48	230.66
785.80	230.63
786.12	230.61
786.45	230.57
786.77	230.54
787.09	230.50
787.42	230.40
787.74	230.37
788.06	230.35
788.38	230.32
788.71	230.27
789.03	230.24
789.35	230.25
789.67	230.20
789.99	230.19
790.32	230.14
790.64	230.13
790.96	230.26
791.28	230.17
791.61	230.14
791.93	230.14
792.25	230.10
792.57	230.20
792.89	230.15
793.21	230.13
793.54	230.09
793.86	230.05
794.18	230.03
794.50	229.97
794.82	229.94
795.14	229.94
795.47	229.95
795.79	229.94
796.11	229.88
796.43	229.85
796.75	229.81
797.07	229.82
797.39	229.79
797.71	229.62
798.04	229.61
798.36	229.60
798.68	229.57
799.00	229.57
799.32	229.45
799.64	229.47
799.96	229.45
800.28	229.47
800.60	229.45
800.92	229.43
801.24	229.41
801.56	229.42
801.89	229.39
802.21	229.38
802.53	229.33
802.85	229.33
803.17	229.40
803.49	229.34
803.81	229.30
804.13	229.28
804.45	229.24
804.77	229.24
805.09	229.22
805.41	229.19
805.73	229.13
806.05	229.07
806.37	229.04
806.69	228.99
807.01	228.95
807.33	228.96
807.65	228.88
807.97	228.95
808.28	228.91
808.60	228.88
808.92	228.85
809.24	228.96
809.56	228.90
809.88	228.82
810.20	228.83
810.52	228.86
810.84	228.82
811.16	228.79
811.48	228.76
811.80	228.81
812.12	228.80
812.43	228.82
812.75	228.82
813.07	228.81
813.39	228.81
813.71	228.78
814.03	228.74
814.35	228.74
814.67	228.65
814.98	228.62
815.30	228.61
815.62	228.57
815.94	228.43
816.26	228.45
816.58	228.41
816.89	228.41
817.21	228.35
817.53	228.36
817.85	228.36
818.17	228.35
818.48	228.27
818.80	228.29
819.12	228.25
819.44	228.21
819.76	228.16
820.07	228.15
820.39	228.14
820.71	228.15
821.03	228.14
821.34	228.12
821.66	228.13
821.98	228.14
822.30	228.13
822.61	228.22
822.93	228.19
823.25	228.17
823.57	228.15
823.88	228.16
824.20	228.14
824.52	228.15
824.83	228.15
825.15	228.11
825.47	228.08
825.79	228.08
826.10	228.07
826.42	228.06
826.74	228.06
827.05	228.06
827.37	228.05
827.69	228.03
828.00	228.03
828.32	228.03
828.64	227.99
828.95	228.08
829.27	228.02
829.58	228.00
829.90	228.02
830.22	228.02
830.53	227.98
830.85	227.95
831.17	227.89
831.48	227.88
831.80	227.88
832.11	227.87
832.43	227.84
832.75	227.83
833.06	227.93
833.38	227.89
833.69	227.87
834.01	227.87
834.32	227.86
834.64	227.85
834.96	227.84
835.27	227.83
835.59	227.76
835.90	227.74
836.22	227.75
836.53	227.70
836.85	227.68
837.16	227.87
837.48	227.87
837.79	227.93
838.11	227.94
838.42	227.94
838.74	227.96
839.05	227.94
839.37	227.94
839.68	227.83
840.00	227.82
840.31	227.85
840.63	227.82
840.94	227.80
841.26	227.77
841.57	227.76
841.88	227.78
842.20	227.75
842.51	227.71
842.83	227.70
843.14	227.87
843.46	227.87
843.77	227.75
844.08	227.74
844.40	227.67
844.71	227.64
845.03	227.62
845.34	227.60
845.65	227.59
845.97	227.60
846.28	227.61
846.60	227.62
846.91	227.60
847.22	227.59
847.54	227.63
847.85	227.64
848.16	227.62
848.48	227.59
848.79	227.64
849.10	227.66
849.42	227.68
849.73	227.50
850.04	227.51
850.36	227.45
850.67	227.48
850.98	227.48
851.30	227.50
851.61	227.49
851.92	227.49
852.23	227.55
852.55	227.54
852.86	227.54
853.17	227.55
853.49	227.58
853.80	227.61
854.11	227.61
854.42	227.63
854.74	227.61
855.05	227.62
855.36	227.54
855.67	227.54
855.99	227.53
856.30	227.74
856.61	227.74
856.92	227.75
857.23	227.74
857.55	227.73
857.86	227.71
858.17	227.74
858.48	227.70
858.79	227.66
859.11	227.67
859.42	227.64
859.73	227.61
860.04	227.60
860.35	227.54
860.66	227.48
860.98	227.47
861.29	227.49
861.60	227.46
861.91	227.51
862.22	227.48
862.53	227.45
862.84	227.24
863.16	227.26
863.47	227.24
863.78	227.21
864.09	227.23
864.40	227.24
864.71	227.23
865.02	227.26
865.33	227.24
865.64	227.21
865.95	227.22
866.27	227.32
866.58	227.30
866.89	227.33
867.20	227.34
867.51	227.31
867.82	227.29
868.13	227.34
868.44	227.30
868.75	227.34
869.06	227.35
869.37	227.36
869.68	227.30
869.99	227.33
870.30	227.35
870.61	227.37
870.92	227.34
871.23	227.32
871.54	227.35
871.85	227.39
872.16	227.41
872.47	227.39
872.78	227.30
873.09	227.32
873.40	227.30
873.71	227.31
874.02	227.31
874.33	227.32
874.64	227.27
874.95	227.28
875.26	227.24
875.56	227.24
875.87	227.22
876.18	227.23
876.49	227.39
876.80	227.35
877.11	227.32
877.42	227.32
877.73	227.33
878.04	227.29
878.35	227.27
878.66	227.29
878.96	227.29
879.27	227.27
879.58	227.26
879.89	227.24
880.20	227.29
880.51	227.28
880.82	227.28
881.12	227.29
881.43	227.26
881.74	227.24
882.05	227.22
882.36	227.23
882.67	227.25
882.97	227.04
883.28	227.04
883.59	227.03
883.90	227.05
884.21	227.07
884.51	227.06
884.82	227.04
885.13	227.03
885.44	227.03
885.74	227.03
886.05	227.03
886.36	227.04
886.67	226.98
886.98	227.08
887.28	227.08
887.59	227.08
887.90	227.09
888.20	227.09
888.51	227.13
888.82	227.10
889.13	227.11
889.43	227.28
889.74	227.27
890.05	227.27
890.35	227.25
890.66	227.23
890.97	227.21
891.28	227.20
891.58	227.19
891.89	227.18
892.20	227.16
892.50	227.14
892.81	227.13
893.12	227.13
893.42	227.03
893.73	227.04
894.04	227.04
894.34	227.06
894.65	227.05
894.95	227.04
895.26	227.06
895.57	227.13
895.87	226.95
896.18	226.98
896.48	226.99
896.79	226.99
897.10	227.01
897.40	227.03
897.71	227.06
898.01	227.05
898.32	227.06
898.63	227.06
898.93	227.08
899.24	227.08
899.54	227.07
899.85	227.06
900.15	227.06
900.46	227.05
900.76	227.06
901.07	227.06
901.38	227.04
901.68	227.07
901.99	226.97
902.29	226.98
902.60	226.96
902.90	226.95
903.21	226.96
903.51	226.94
903.82	226.97
904.12	226.97
904.43	226.97
904.73	226.96
905.03	226.97
905.34	227.14
905.64	227.13
905.95	227.13
906.25	227.13
906.56	227.12
906.86	227.12
907.17	227.10
907.47	227.12
907.77	227.10
908.08	227.06
908.38	227.08
908.69	227.10
908.99	227.14
909.30	227.15
909.60	227.14
909.90	227.14
910.21	227.09
910.51	227.06
910.81	227.06
911.12	227.08
911.42	227.08
911.73	226.90
912.03	226.91
912.33	226.95
912.64	226.95
912.94	226.93
913.24	226.91
913.55	226.90
913.85	226.88
914.15	226.92
914.46	226.94
914.76	226.92
915.06	226.90
915.37	226.86
915.67	226.85
915.97	226.85
916.27	226.83
916.58	226.85
916.88	226.83
917.18	226.82
917.49	226.93
917.79	226.92
918.09	226.95
918.39	226.99
918.70	226.99
919.00	227.00
919.30	227.08
919.60	227.08
919.91	227.05
920.21	227.07
920.51	227.02
920.81	227.01
921.12	227.04
921.42	227.03
921.72	227.04
922.02	227.05
922.32	227.07
922.63	227.08
922.93	227.16
923.23	227.18
923.53	227.16
923.83	227.05
924.13	227.07
924.44	227.06
924.74	227.08
925.04	227.11
925.34	227.10
925.64	227.03
925.94	227.04
926.24	227.14
926.55	227.12
926.85	227.16
927.15	227.16
927.45	227.16
927.75	227.16
928.05	227.16
928.35	227.15
928.65	227.18
928.95	227.19
929.26	227.10
929.56	227.13
929.86	227.15
930.16	227.12
930.46	227.11
930.76	227.12
931.06	227.02
931.36	226.96
931.66	226.99
931.96	227.00
932.26	227.00
932.56	226.93
932.86	226.95
933.16	226.93
933.46	226.91
933.76	226.88
934.06	226.91
934.36	226.97
934.66	226.96
934.96	226.93
935.26	226.94
935.56	226.98
935.86	226.94
936.16	226.91
936.46	226.90
936.76	226.89
937.06	226.86
937.36	226.89
937.66	226.90
937.96	226.88
938.26	226.85
938.56	226.84
938.86	226.85
939.16	226.87
939.46	226.89
939.76	226.90
940.06	226.90
940.35	226.87
940.65	226.77
940.95	226.79
941.25	226.74
941.55	226.72
941.85	226.69
942.15	226.73
942.45	226.78
942.75	226.78
943.04	226.79
943.34	226.82
943.64	226.81
943.94	226.78
944.24	226.77
944.54	226.79
944.84	226.78
945.13	226.75
945.43	226.73
945.73	226.72
946.03	226.72
946.33	226.71
946.62	226.70
946.92	226.70
947.22	226.71
947.52	226.74
947.82	226.75
948.11	226.73
948.41	226.69
948.71	226.64
949.01	226.64
949.31	226.63
949.60	226.61
949.90	226.63
950.20	226.63
950.50	226.63
950.79	226.63
951.09	226.66
951.39	226.65
951.69	226.62
951.98	226.65
952.28	226.65
952.58	226.65
952.87	226.65
953.17	226.67
953.47	226.64
953.76	226.63
954.06	226.61
954.36	226.59
954.66	226.59
954.95	226.65
955.25	226.67
955.55	226.68
955.84	226.67
956.14	226.68
956.44	226.69
956.73	226.67
957.03	226.67
957.32	226.67
957.62	226.67
957.92	226.71
958.21	226.69
958.51	226.90
958.81	226.93
959.10	226.94
959.40	226.98
959.69	227.00
959.99	227.03
960.29	227.03
960.58	227.04
960.88	227.10
961.17	227.08
961.47	227.09
961.76	227.06
962.06	227.09
962.36	227.08
962.65	227.09
962.95	227.12
963.24	227.10
963.54	227.10
963.83	227.14
964.13	227.13
964.42	227.11
964.72	226.97
965.01	226.95
965.31	226.95
965.60	226.90
965.90	227.02
966.19	226.97
966.49	226.98
966.78	226.97
967.08	226.94
967.37	226.94
967.67	226.91
967.96	226.95
968.26	226.94
968.55	226.95
968.85	226.93
969.14	226.92
969.43	226.93
969.73	226.91
970.02	226.90
970.32	226.87
970.61	226.84
970.91	226.79
971.20	226.76
971.49	226.74
971.79	226.77
972.08	226.63
972.38	226.66
972.67	226.64
972.96	226.67
973.26	226.65
973.55	226.70
973.85	226.70
974.14	226.68
974.43	226.70
974.73	226.66
975.02	226.65
975.31	226.64
975.61	226.64
975.90	226.62
976.19	226.60
976.49	226.62
976.78	226.63
977.07	226.62
977.37	226.65
977.66	226.67
977.95	226.63
978.24	226.64
978.54	226.68
978.83	226.67
979.12	226.66
979.42	226.66
979.71	226.62
980.00	226.62
980.29	226.62
980.59	226.59
980.88	226.64
981.17	226.63
981.46	226.64
981.76	226.63
982.05	226.69
982.34	226.72
982.63	226.70
982.93	226.71
983.22	226.77
983.51	226.78
983.80	226.80
984.09	226.83
984.39	226.82
984.68	226.78
984.97	226.79
985.26	226.77
985.55	226.79
985.85	226.75
986.14	226.78
986.43	226.79
986.72	226.78
987.01	226.72
987.30	226.73
987.59	226.71
987.89	226.72
988.18	226.66
988.47	226.65
988.76	226.63
989.05	226.61
989.34	226.57
989.63	226.61
989.92	226.57
990.22	226.53
990.51	226.53
990.80	226.53
991.09	226.55
991.38	226.57
991.67	226.55
991.96	226.53
992.25	226.53
992.54	226.50
992.83	226.51
993.12	226.50
993.41	226.53
993.70	226.61
993.99	226.63
994.28	226.65
994.58	226.67
994.87	226.66
995.16	226.66
995.45	226.65
995.74	226.58
996.03	226.61
996.32	226.65
996.61	226.67
996.90	226.67
997.19	226.66
997.48	226.66
997.77	226.64
998.06	226.66
998.34	226.64
998.63	226.63
998.92	226.64
999.21	226.67
999.50	226.67
999.79	226.61
1000.08	226.61
1000.37	226.61
1000.66	226.59
1000.95	226.64
1001.24	226.65
1001.53	226.68
1001.82	226.68
1002.11	226.63
1002.40	226.65
1002.68	226.70
1002.97	226.83
1003.26	226.82
1003.55	226.79
1003.84	226.80
1004.13	226.85
1004.42	226.84
1004.71	226.85
1004.99	226.84
1005.28	226.88
1005.57	226.87
1005.86	226.84
1006.15	226.83
1006.44	226.80
1006.72	226.83
1007.01	226.79
1007.30	226.80
1007.59	226.78
1007.88	226.79
1008.17	226.79
1008.45	226.75
1008.74	226.67
1009.03	226.58
1009.32	226.58
1009.60	226.59
1009.89	226.59
1010.18	226.53
1010.47	226.52
1010.76	226.52
1011.04	226.52
1011.33	226.51
1011.62	226.53
1011.91	226.54
1012.19	226.55
1012.48	226.56
1012.77	226.56
1013.05	226.62
1013.34	226.62
1013.63	226.60
1013.92	226.61
1014.20	226.61
1014.49	226.63
1014.78	226.64
1015.06	226.59
1015.35	226.60
1015.64	226.62
1015.92	226.65
1016.21	226.66
1016.50	226.68
1016.78	226.69
1017.07	226.70
1017.36	226.68
1017.64	226.65
1017.93	226.68
1018.22	226.66
1018.50	226.65
1018.79	226.65
1019.08	226.59
1019.36	226.59
1019.65	226.59
1019.93	226.63
1020.22	226.66
1020.51	226.76
1020.79	226.74
1021.08	226.30
1021.36	226.43
1021.65	226.67
1021.94	226.61
1022.22	226.69
1022.51	226.34
1022.79	227.41
1023.08	226.94
1023.36	228.90
1023.65	226.20
>>>>>End Processed Spectral Data<<<<<
