SpectraSuite Data File
++++++++++++++++++++++++++++++++++++
Date: Tue Oct 06 21:37:14 EDT 2015
User: lab3
Dark Spectrum Present: No
Reference Spectrum Present: No
Number of Sampled Component Spectra: 1
Spectrometers: USB2E7196
Integration Time (usec): 66000 (USB2E7196)
Spectra Averaged: 5000 (USB2E7196)
Boxcar Smoothing: 10 (USB2E7196)
Correct for Electrical Dark: No (USB2E7196)
Strobe/Lamp Enabled: No (USB2E7196)
Correct for Detector Non-linearity: No (USB2E7196)
Correct for Stray Light: No (USB2E7196)
Number of Pixels in Processed Spectrum: 2048
>>>>>Begin Processed Spectral Data<<<<<
339.09	0.00
339.48	213.42
339.86	214.90
340.24	216.21
340.63	217.65
341.01	221.77
341.39	220.27
341.78	221.80
342.16	223.15
342.54	223.43
342.93	211.98
343.31	222.68
343.69	223.22
344.07	223.68
344.46	224.13
344.84	224.53
345.22	224.73
345.60	225.01
345.99	225.22
346.37	225.36
346.75	225.48
347.13	225.57
347.52	225.67
347.90	225.80
348.28	225.85
348.66	225.94
349.05	225.93
349.43	226.00
349.81	226.08
350.19	226.15
350.57	226.23
350.96	226.33
351.34	226.44
351.72	226.55
352.10	226.67
352.48	226.75
352.87	226.80
353.25	226.86
353.63	226.92
354.01	226.98
354.39	227.07
354.77	227.15
355.15	227.27
355.54	227.31
355.92	227.32
356.30	227.39
356.68	227.58
357.06	227.66
357.44	227.70
357.82	227.75
358.20	227.97
358.58	228.03
358.97	228.10
359.35	228.20
359.73	228.30
360.11	228.35
360.49	228.41
360.87	228.46
361.25	228.54
361.63	228.64
362.01	228.71
362.39	228.73
362.77	228.79
363.15	228.80
363.53	228.84
363.91	228.89
364.29	228.92
364.67	228.77
365.05	228.80
365.43	228.84
365.81	228.89
366.19	228.83
366.57	228.92
366.95	228.92
367.33	228.87
367.71	228.87
368.09	228.90
368.47	228.90
368.85	228.89
369.23	228.92
369.61	228.83
369.99	228.86
370.37	228.87
370.75	228.99
371.13	228.95
371.51	228.91
371.89	228.90
372.27	228.89
372.65	228.87
373.03	228.83
373.41	228.78
373.78	228.72
374.16	228.59
374.54	228.49
374.92	228.43
375.30	228.40
375.68	228.32
376.06	228.28
376.44	228.22
376.82	228.18
377.19	228.13
377.57	228.08
377.95	227.98
378.33	227.91
378.71	227.70
379.09	227.66
379.47	227.64
379.84	227.57
380.22	227.50
380.60	227.42
380.98	227.38
381.36	227.33
381.73	227.26
382.11	227.26
382.49	227.22
382.87	227.16
383.25	227.12
383.62	227.29
384.00	227.22
384.38	227.19
384.76	227.19
385.13	227.21
385.51	227.17
385.89	227.12
386.27	227.09
386.64	227.09
387.02	227.04
387.40	226.99
387.78	226.98
388.15	226.96
388.53	226.93
388.91	226.91
389.29	226.88
389.66	226.89
390.04	226.85
390.42	226.85
390.79	226.86
391.17	226.84
391.55	226.62
391.92	226.63
392.30	226.65
392.68	226.60
393.05	226.58
393.43	226.59
393.81	226.61
394.18	226.60
394.56	226.61
394.94	226.67
395.31	226.67
395.69	226.75
396.06	226.80
396.44	226.84
396.82	226.87
397.19	226.99
397.57	227.01
397.95	227.08
398.32	227.08
398.70	227.15
399.07	227.24
399.45	227.30
399.82	227.37
400.20	227.42
400.58	227.51
400.95	227.53
401.33	227.66
401.70	227.89
402.08	228.03
402.45	228.16
402.83	228.33
403.20	228.50
403.58	228.63
403.95	228.84
404.33	229.06
404.71	229.27
405.08	229.58
405.46	229.83
405.83	230.11
406.21	230.40
406.58	230.72
406.96	231.05
407.33	231.42
407.70	231.84
408.08	232.41
408.45	232.91
408.83	233.45
409.20	233.95
409.58	234.40
409.95	235.02
410.33	235.69
410.70	236.33
411.08	237.08
411.45	237.88
411.82	238.69
412.20	239.62
412.57	240.72
412.95	241.60
413.32	242.73
413.69	243.90
414.07	245.14
414.44	246.49
414.82	247.88
415.19	249.50
415.56	251.15
415.94	252.87
416.31	254.79
416.68	256.74
417.06	258.97
417.43	261.07
417.81	263.49
418.18	265.95
418.55	268.64
418.93	271.43
419.30	274.34
419.67	277.44
420.04	280.63
420.42	283.95
420.79	287.78
421.16	291.65
421.54	295.57
421.91	299.68
422.28	303.94
422.66	308.52
423.03	312.88
423.40	317.46
423.77	322.34
424.15	327.35
424.52	332.53
424.89	338.14
425.26	343.71
425.64	348.87
426.01	354.67
426.38	360.58
426.75	366.68
427.13	372.91
427.50	379.43
427.87	386.20
428.24	393.02
428.61	399.55
428.99	406.60
429.36	414.34
429.73	421.72
430.10	429.09
430.47	436.63
430.85	444.40
431.22	452.67
431.59	461.17
431.96	469.47
432.33	478.69
432.70	487.45
433.08	497.84
433.45	507.63
433.82	517.29
434.19	528.14
434.56	538.81
434.93	549.17
435.30	559.43
435.68	571.05
436.05	582.43
436.42	593.82
436.79	604.23
437.16	615.56
437.53	627.66
437.90	639.77
438.27	651.66
438.64	664.51
439.01	676.20
439.38	686.93
439.75	697.32
440.13	709.16
440.50	720.42
440.87	729.43
441.24	739.35
441.61	750.24
441.98	758.32
442.35	767.89
442.72	777.65
443.09	786.97
443.46	793.08
443.83	797.77
444.20	801.70
444.57	807.29
444.94	810.68
445.31	814.20
445.68	817.27
446.05	819.66
446.42	819.58
446.79	819.25
447.16	819.03
447.53	818.86
447.90	815.59
448.27	812.51
448.64	807.48
449.01	804.12
449.37	796.80
449.74	790.16
450.11	781.56
450.48	772.05
450.85	762.48
451.22	754.30
451.59	746.22
451.96	738.91
452.33	728.27
452.70	718.78
453.07	707.25
453.43	695.71
453.80	684.44
454.17	673.62
454.54	663.64
454.91	652.36
455.28	641.69
455.65	631.62
456.02	620.94
456.38	612.34
456.75	601.31
457.12	592.42
457.49	583.44
457.86	574.92
458.23	567.42
458.59	559.17
458.96	550.69
459.33	543.23
459.70	535.63
460.07	529.84
460.43	523.02
460.80	516.63
461.17	511.09
461.54	505.10
461.91	499.45
462.27	493.72
462.64	489.03
463.01	483.70
463.38	478.29
463.74	473.42
464.11	469.09
464.48	465.18
464.85	460.97
465.21	457.74
465.58	454.15
465.95	450.08
466.32	446.85
466.68	443.69
467.05	440.50
467.42	437.39
467.78	434.06
468.15	431.00
468.52	428.76
468.88	425.77
469.25	423.05
469.62	420.90
469.98	418.57
470.35	416.49
470.72	414.59
471.08	412.69
471.45	411.09
471.82	409.30
472.18	407.41
472.55	406.18
472.92	404.67
473.28	403.47
473.65	402.21
474.02	400.97
474.38	399.93
474.75	399.31
475.11	398.46
475.48	398.05
475.85	397.61
476.21	397.33
476.58	397.14
476.94	397.28
477.31	397.30
477.67	397.36
478.04	397.64
478.41	398.04
478.77	398.62
479.14	398.97
479.50	399.72
479.87	400.70
480.23	401.65
480.60	402.55
480.96	403.45
481.33	404.85
481.69	406.22
482.06	407.57
482.42	408.81
482.79	410.36
483.15	412.18
483.52	414.23
483.88	416.18
484.25	418.26
484.61	420.44
484.98	422.79
485.34	425.45
485.71	428.22
486.07	431.19
486.44	434.11
486.80	437.42
487.17	440.79
487.53	444.45
487.90	448.29
488.26	452.48
488.62	456.90
488.99	461.30
489.35	465.93
489.72	470.90
490.08	476.13
490.44	481.47
490.81	487.02
491.17	492.76
491.54	498.92
491.90	505.21
492.26	511.93
492.63	518.97
492.99	526.34
493.36	533.84
493.72	541.75
494.08	549.86
494.45	558.36
494.81	567.25
495.17	576.38
495.54	586.01
495.90	596.08
496.26	606.34
496.63	616.91
496.99	627.86
497.35	639.33
497.72	651.08
498.08	663.15
498.44	675.59
498.80	688.69
499.17	702.06
499.53	715.90
499.89	730.18
500.26	744.67
500.62	759.51
500.98	775.23
501.34	790.98
501.71	807.49
502.07	824.34
502.43	841.66
502.79	859.20
503.16	877.23
503.52	895.47
503.88	914.13
504.24	933.26
504.60	952.65
504.97	972.66
505.33	993.18
505.69	1014.77
506.05	1036.57
506.41	1058.35
506.78	1080.28
507.14	1102.76
507.50	1125.75
507.86	1149.13
508.22	1172.76
508.59	1196.25
508.95	1220.77
509.31	1245.86
509.67	1271.57
510.03	1297.24
510.39	1322.84
510.75	1348.54
511.12	1374.61
511.48	1401.01
511.84	1427.32
512.20	1453.97
512.56	1481.74
512.92	1509.38
513.28	1536.38
513.64	1563.82
514.00	1591.64
514.37	1619.75
514.73	1647.94
515.09	1675.45
515.45	1703.25
515.81	1731.33
516.17	1759.22
516.53	1786.45
516.89	1813.39
517.25	1840.64
517.61	1867.68
517.97	1895.45
518.33	1922.68
518.69	1949.82
519.05	1977.30
519.41	2005.01
519.77	2032.86
520.13	2059.13
520.49	2085.37
520.85	2112.03
521.21	2138.10
521.57	2164.54
521.93	2189.85
522.29	2215.90
522.65	2241.78
523.01	2267.40
523.37	2292.26
523.73	2317.86
524.09	2343.16
524.45	2368.30
524.81	2392.82
525.17	2417.27
525.53	2440.74
525.89	2464.68
526.25	2488.31
526.61	2510.26
526.97	2532.28
527.33	2554.03
527.68	2575.71
528.04	2597.04
528.40	2617.26
528.76	2637.52
529.12	2657.22
529.48	2677.71
529.84	2695.42
530.20	2713.46
530.56	2730.82
530.91	2748.30
531.27	2765.04
531.63	2781.00
531.99	2796.57
532.35	2811.93
532.71	2826.83
533.07	2842.18
533.42	2855.55
533.78	2869.03
534.14	2883.70
534.50	2897.19
534.86	2911.26
535.21	2922.96
535.57	2934.57
535.93	2945.82
536.29	2955.31
536.65	2964.71
537.00	2972.76
537.36	2982.05
537.72	2990.43
538.08	2998.36
538.44	3004.96
538.79	3011.43
539.15	3016.58
539.51	3020.89
539.87	3023.95
540.22	3025.33
540.58	3027.00
540.94	3029.35
541.29	3030.67
541.65	3030.53
542.01	3030.00
542.37	3027.71
542.72	3027.20
543.08	3024.86
543.44	3022.72
543.79	3020.41
544.15	3017.23
544.51	3013.99
544.87	3009.81
545.22	3004.63
545.58	2999.03
545.94	2993.79
546.29	2987.09
546.65	2980.48
547.01	2974.10
547.36	2968.28
547.72	2962.57
548.07	2955.12
548.43	2946.46
548.79	2937.51
549.14	2928.76
549.50	2920.13
549.86	2910.62
550.21	2899.34
550.57	2889.33
550.92	2877.56
551.28	2865.97
551.64	2854.78
551.99	2843.33
552.35	2831.42
552.70	2819.39
553.06	2807.89
553.41	2795.92
553.77	2783.59
554.13	2771.33
554.48	2757.84
554.84	2743.16
555.19	2729.05
555.55	2714.87
555.90	2701.26
556.26	2687.87
556.61	2673.40
556.97	2657.84
557.32	2642.67
557.68	2627.91
558.03	2612.71
558.39	2598.48
558.74	2584.98
559.10	2569.53
559.45	2554.00
559.81	2539.17
560.16	2523.99
560.52	2508.45
560.87	2493.22
561.23	2477.49
561.58	2462.39
561.94	2446.89
562.29	2430.99
562.64	2415.20
563.00	2399.42
563.35	2383.89
563.71	2367.92
564.06	2352.07
564.42	2336.70
564.77	2321.52
565.12	2305.93
565.48	2290.06
565.83	2274.29
566.19	2258.44
566.54	2242.82
566.89	2226.79
567.25	2210.73
567.60	2195.48
567.96	2179.66
568.31	2162.29
568.66	2145.80
569.02	2129.92
569.37	2114.60
569.72	2099.85
570.08	2084.65
570.43	2068.81
570.78	2052.71
571.14	2036.57
571.49	2020.38
571.84	2004.47
572.20	1987.27
572.55	1970.83
572.90	1954.55
573.26	1938.38
573.61	1921.53
573.96	1905.16
574.31	1888.71
574.67	1871.92
575.02	1854.82
575.37	1837.69
575.72	1821.51
576.08	1805.06
576.43	1787.69
576.78	1770.62
577.13	1753.82
577.49	1737.18
577.84	1721.09
578.19	1704.54
578.54	1687.94
578.90	1671.23
579.25	1654.36
579.60	1638.83
579.95	1622.98
580.30	1607.06
580.66	1590.82
581.01	1574.68
581.36	1558.64
581.71	1543.46
582.06	1528.31
582.42	1512.96
582.77	1498.04
583.12	1483.34
583.47	1468.71
583.82	1454.29
584.17	1439.24
584.53	1424.27
584.88	1409.66
585.23	1394.89
585.58	1380.55
585.93	1366.03
586.28	1352.62
586.63	1339.04
586.98	1324.92
587.34	1311.26
587.69	1297.42
588.04	1283.92
588.39	1270.70
588.74	1257.11
589.09	1243.61
589.44	1229.80
589.79	1216.64
590.14	1203.50
590.49	1190.38
590.84	1177.52
591.19	1165.04
591.54	1152.71
591.89	1140.00
592.25	1127.60
592.60	1115.07
592.95	1102.69
593.30	1090.77
593.65	1078.50
594.00	1066.55
594.35	1055.54
594.70	1043.80
595.05	1032.67
595.40	1021.41
595.75	1009.99
596.10	999.21
596.45	988.38
596.80	978.03
597.15	967.60
597.50	957.15
597.85	947.07
598.19	936.97
598.54	926.83
598.89	917.22
599.24	908.03
599.59	898.57
599.94	889.84
600.29	881.14
600.64	872.21
600.99	863.17
601.34	854.47
601.69	845.26
602.04	836.99
602.39	828.61
602.74	820.44
603.08	812.39
603.43	804.35
603.78	796.32
604.13	788.30
604.48	780.32
604.83	772.64
605.18	764.97
605.53	757.49
605.87	749.98
606.22	742.58
606.57	735.12
606.92	727.61
607.27	720.11
607.62	712.80
607.96	705.74
608.31	699.25
608.66	692.60
609.01	686.24
609.36	679.83
609.70	673.41
610.05	666.96
610.40	660.74
610.75	654.47
611.10	648.44
611.44	642.42
611.79	636.55
612.14	630.58
612.49	624.69
612.83	619.11
613.18	613.62
613.53	608.11
613.88	602.72
614.22	597.74
614.57	592.66
614.92	587.71
615.27	582.90
615.61	577.94
615.96	573.04
616.31	568.13
616.65	563.39
617.00	558.76
617.35	554.24
617.70	549.71
618.04	545.31
618.39	541.00
618.74	536.98
619.08	532.91
619.43	528.98
619.78	525.01
620.12	520.98
620.47	517.17
620.82	513.48
621.16	509.81
621.51	506.19
621.85	502.58
622.20	499.01
622.55	495.46
622.89	491.94
623.24	488.63
623.59	485.38
623.93	482.21
624.28	479.17
624.62	476.31
624.97	473.51
625.32	470.60
625.66	467.68
626.01	464.70
626.35	461.91
626.70	459.05
627.04	456.41
627.39	453.73
627.73	451.12
628.08	448.55
628.43	446.03
628.77	443.43
629.12	440.94
629.46	438.57
629.81	436.35
630.15	434.05
630.50	431.76
630.84	429.54
631.19	427.36
631.53	425.27
631.88	423.01
632.22	420.82
632.57	418.97
632.91	417.06
633.26	415.22
633.60	413.39
633.95	411.65
634.29	409.79
634.64	408.01
634.98	406.10
635.32	404.38
635.67	402.83
636.01	401.27
636.36	399.76
636.70	398.32
637.05	396.72
637.39	395.28
637.73	393.84
638.08	392.47
638.42	391.15
638.77	389.69
639.11	388.20
639.45	386.78
639.80	385.29
640.14	383.87
640.49	382.47
640.83	381.07
641.17	379.74
641.52	378.41
641.86	377.14
642.20	376.02
642.55	374.72
642.89	373.43
643.23	372.20
643.58	371.12
643.92	369.87
644.26	368.73
644.61	367.62
644.95	366.48
645.29	365.27
645.64	364.05
645.98	362.94
646.32	361.96
646.66	360.90
647.01	359.88
647.35	358.97
647.69	358.00
648.04	357.12
648.38	356.15
648.72	355.25
649.06	354.33
649.41	353.40
649.75	352.51
650.09	351.66
650.43	350.79
650.78	349.86
651.12	349.01
651.46	348.16
651.80	347.33
652.14	346.55
652.49	345.84
652.83	345.06
653.17	344.25
653.51	343.47
653.85	342.80
654.20	342.08
654.54	341.26
654.88	340.50
655.22	339.78
655.56	339.05
655.90	338.35
656.25	337.66
656.59	336.99
656.93	336.36
657.27	335.78
657.61	335.11
657.95	334.52
658.29	333.89
658.64	333.28
658.98	332.62
659.32	331.97
659.66	331.37
660.00	330.81
660.34	330.24
660.68	329.62
661.02	328.95
661.36	328.32
661.70	327.73
662.05	327.16
662.39	326.60
662.73	326.13
663.07	325.69
663.41	325.21
663.75	324.66
664.09	324.14
664.43	323.49
664.77	322.95
665.11	322.35
665.45	321.82
665.79	321.31
666.13	320.79
666.47	320.24
666.81	319.66
667.15	319.04
667.49	318.56
667.83	318.13
668.17	317.67
668.51	317.24
668.85	316.85
669.19	316.50
669.53	315.96
669.87	315.41
670.21	314.85
670.55	314.32
670.89	313.91
671.23	313.45
671.57	313.04
671.91	312.69
672.25	312.36
672.58	312.01
672.92	311.57
673.26	311.22
673.60	310.87
673.94	310.50
674.28	310.17
674.62	309.80
674.96	309.36
675.30	308.99
675.64	308.54
675.97	308.09
676.31	307.60
676.65	307.19
676.99	306.86
677.33	306.43
677.67	306.04
678.01	305.56
678.34	305.16
678.68	304.77
679.02	304.31
679.36	303.86
679.70	303.41
680.04	303.01
680.37	302.59
680.71	302.20
681.05	301.84
681.39	301.42
681.73	300.96
682.06	300.54
682.40	300.15
682.74	299.80
683.08	299.49
683.42	299.11
683.75	298.77
684.09	298.30
684.43	297.92
684.77	297.51
685.10	297.14
685.44	296.73
685.78	296.32
686.12	295.93
686.45	295.51
686.79	295.08
687.13	294.67
687.46	294.23
687.80	293.82
688.14	293.35
688.48	292.93
688.81	292.51
689.15	292.15
689.49	291.71
689.82	291.27
690.16	290.73
690.50	290.28
690.83	289.82
691.17	289.36
691.51	288.93
691.84	288.54
692.18	288.09
692.52	287.63
692.85	287.19
693.19	286.80
693.52	286.38
693.86	285.93
694.20	285.50
694.53	285.06
694.87	284.59
695.21	284.13
695.54	283.69
695.88	283.23
696.21	282.73
696.55	282.29
696.88	281.83
697.22	281.40
697.56	280.99
697.89	280.52
698.23	280.10
698.56	279.66
698.90	279.24
699.23	278.78
699.57	278.37
699.90	277.94
700.24	277.47
700.58	277.06
700.91	276.69
701.25	276.44
701.58	276.11
701.92	275.77
702.25	275.38
702.59	274.97
702.92	274.57
703.26	274.16
703.59	273.74
703.93	273.47
704.26	273.07
704.60	272.65
704.93	272.25
705.26	271.83
705.60	271.47
705.93	271.02
706.27	270.70
706.60	270.35
706.94	270.03
707.27	269.60
707.61	269.21
707.94	268.78
708.27	268.21
708.61	267.74
708.94	267.31
709.28	266.92
709.61	266.54
709.94	266.19
710.28	265.84
710.61	265.52
710.95	265.00
711.28	264.76
711.61	264.39
711.95	264.08
712.28	263.70
712.61	263.33
712.95	263.08
713.28	262.78
713.61	262.39
713.95	262.00
714.28	261.68
714.61	261.31
714.95	260.98
715.28	260.64
715.61	260.32
715.95	260.02
716.28	259.70
716.61	259.41
716.95	259.08
717.28	258.76
717.61	258.44
717.94	258.15
718.28	257.72
718.61	257.41
718.94	257.08
719.27	256.80
719.61	256.53
719.94	256.20
720.27	255.83
720.60	255.55
720.94	255.26
721.27	254.99
721.60	254.76
721.93	254.48
722.27	254.26
722.60	253.99
722.93	253.68
723.26	253.44
723.59	253.14
723.93	252.90
724.26	252.66
724.59	252.39
724.92	252.15
725.25	251.95
725.59	251.71
725.92	251.49
726.25	251.25
726.58	251.00
726.91	250.74
727.24	250.52
727.57	250.28
727.91	250.01
728.24	249.80
728.57	249.55
728.90	249.34
729.23	249.06
729.56	248.92
729.89	248.70
730.22	248.47
730.55	248.26
730.89	248.04
731.22	247.81
731.55	247.61
731.88	247.40
732.21	247.16
732.54	246.94
732.87	246.74
733.20	246.55
733.53	246.36
733.86	246.18
734.19	245.96
734.52	245.81
734.85	245.76
735.18	245.54
735.51	245.40
735.84	245.23
736.17	245.11
736.50	244.83
736.83	244.86
737.16	244.69
737.49	244.51
737.82	244.31
738.15	244.15
738.48	243.98
738.81	243.79
739.14	243.60
739.47	243.41
739.80	243.23
740.13	243.07
740.46	242.87
740.79	242.67
741.12	242.49
741.45	242.28
741.78	242.01
742.11	241.88
742.44	241.67
742.77	241.52
743.10	241.32
743.43	241.15
743.75	240.80
744.08	240.91
744.41	240.74
744.74	240.58
745.07	240.39
745.40	240.28
745.73	240.20
746.06	240.07
746.39	239.95
746.71	239.80
747.04	239.63
747.37	239.49
747.70	239.37
748.03	239.24
748.36	239.14
748.68	239.00
749.01	238.82
749.34	238.70
749.67	238.56
750.00	238.46
750.33	238.47
750.65	238.35
750.98	237.96
751.31	237.85
751.64	237.74
751.97	237.72
752.29	237.57
752.62	237.36
752.95	237.23
753.28	237.08
753.60	236.95
753.93	236.87
754.26	236.77
754.59	236.60
754.91	236.46
755.24	236.32
755.57	236.21
755.90	236.09
756.22	235.96
756.55	235.82
756.88	235.66
757.20	235.43
757.53	235.27
757.86	235.15
758.19	235.05
758.51	234.93
758.84	234.74
759.17	234.62
759.49	234.53
759.82	234.51
760.15	234.43
760.47	234.33
760.80	234.18
761.13	234.11
761.45	234.01
761.78	233.92
762.11	233.83
762.43	233.72
762.76	233.63
763.08	233.56
763.41	233.49
763.74	233.42
764.06	233.33
764.39	233.25
764.71	233.17
765.04	233.07
765.37	232.98
765.69	232.90
766.02	232.82
766.34	232.72
766.67	232.57
767.00	232.53
767.32	232.56
767.65	232.60
767.97	232.50
768.30	232.44
768.62	232.37
768.95	232.28
769.27	232.21
769.60	232.17
769.92	232.07
770.25	231.96
770.57	231.86
770.90	231.79
771.22	231.71
771.55	231.65
771.87	231.60
772.20	231.54
772.52	231.62
772.85	231.79
773.17	231.73
773.50	231.67
773.82	231.58
774.15	231.43
774.47	231.26
774.80	231.19
775.12	231.13
775.45	231.07
775.77	231.04
776.09	231.00
776.42	230.94
776.74	230.95
777.07	230.90
777.39	230.86
777.72	230.80
778.04	230.78
778.36	230.72
778.69	230.67
779.01	230.64
779.33	230.44
779.66	230.19
779.98	230.13
780.31	230.10
780.63	230.13
780.95	230.13
781.28	230.08
781.60	230.03
781.92	229.99
782.25	229.95
782.57	229.91
782.89	229.86
783.22	229.80
783.54	229.73
783.86	229.71
784.19	229.67
784.51	229.69
784.83	229.63
785.16	229.59
785.48	229.56
785.80	229.52
786.12	229.50
786.45	229.46
786.77	229.44
787.09	229.40
787.42	229.29
787.74	229.26
788.06	229.24
788.38	229.20
788.71	229.16
789.03	229.14
789.35	229.13
789.67	229.07
789.99	229.06
790.32	229.01
790.64	229.00
790.96	229.14
791.28	229.05
791.61	229.01
791.93	229.00
792.25	228.96
792.57	229.06
792.89	229.00
793.21	228.99
793.54	228.94
793.86	228.90
794.18	228.88
794.50	228.82
794.82	228.79
795.14	228.79
795.47	228.80
795.79	228.78
796.11	228.71
796.43	228.69
796.75	228.66
797.07	228.64
797.39	228.61
797.71	228.43
798.04	228.42
798.36	228.40
798.68	228.37
799.00	228.37
799.32	228.25
799.64	228.27
799.96	228.25
800.28	228.26
800.60	228.23
800.92	228.22
801.24	228.19
801.56	228.19
801.89	228.15
802.21	228.14
802.53	228.09
802.85	228.11
803.17	228.18
803.49	228.12
803.81	228.09
804.13	228.06
804.45	228.02
804.77	228.02
805.09	228.00
805.41	227.96
805.73	227.91
806.05	227.84
806.37	227.80
806.69	227.77
807.01	227.74
807.33	227.73
807.65	227.65
807.97	227.72
808.28	227.68
808.60	227.65
808.92	227.60
809.24	227.70
809.56	227.65
809.88	227.57
810.20	227.57
810.52	227.59
810.84	227.55
811.16	227.52
811.48	227.49
811.80	227.54
812.12	227.53
812.43	227.55
812.75	227.55
813.07	227.52
813.39	227.52
813.71	227.49
814.03	227.45
814.35	227.46
814.67	227.36
814.98	227.34
815.30	227.33
815.62	227.29
815.94	227.16
816.26	227.17
816.58	227.12
816.89	227.13
817.21	227.07
817.53	227.07
817.85	227.06
818.17	227.04
818.48	226.95
818.80	226.98
819.12	226.93
819.44	226.89
819.76	226.86
820.07	226.85
820.39	226.83
820.71	226.84
821.03	226.83
821.34	226.81
821.66	226.82
821.98	226.83
822.30	226.81
822.61	226.92
822.93	226.87
823.25	226.86
823.57	226.84
823.88	226.86
824.20	226.84
824.52	226.86
824.83	226.85
825.15	226.82
825.47	226.80
825.79	226.80
826.10	226.79
826.42	226.77
826.74	226.78
827.05	226.76
827.37	226.75
827.69	226.74
828.00	226.74
828.32	226.73
828.64	226.69
828.95	226.78
829.27	226.72
829.58	226.71
829.90	226.73
830.22	226.74
830.53	226.70
830.85	226.67
831.17	226.61
831.48	226.61
831.80	226.61
832.11	226.59
832.43	226.56
832.75	226.55
833.06	226.66
833.38	226.60
833.69	226.59
834.01	226.59
834.32	226.57
834.64	226.54
834.96	226.53
835.27	226.53
835.59	226.46
835.90	226.43
836.22	226.42
836.53	226.37
836.85	226.35
837.16	226.52
837.48	226.53
837.79	226.59
838.11	226.59
838.42	226.58
838.74	226.60
839.05	226.58
839.37	226.57
839.68	226.45
840.00	226.44
840.31	226.46
840.63	226.44
840.94	226.43
841.26	226.41
841.57	226.40
841.88	226.40
842.20	226.37
842.51	226.34
842.83	226.32
843.14	226.49
843.46	226.48
843.77	226.36
844.08	226.34
844.40	226.28
844.71	226.26
845.03	226.24
845.34	226.22
845.65	226.21
845.97	226.21
846.28	226.22
846.60	226.23
846.91	226.20
847.22	226.19
847.54	226.22
847.85	226.23
848.16	226.22
848.48	226.18
848.79	226.25
849.10	226.27
849.42	226.28
849.73	226.10
850.04	226.10
850.36	226.03
850.67	226.07
850.98	226.08
851.30	226.09
851.61	226.08
851.92	226.08
852.23	226.13
852.55	226.14
852.86	226.13
853.17	226.15
853.49	226.18
853.80	226.21
854.11	226.22
854.42	226.24
854.74	226.22
855.05	226.23
855.36	226.14
855.67	226.14
855.99	226.13
856.30	226.35
856.61	226.35
856.92	226.35
857.23	226.35
857.55	226.33
857.86	226.31
858.17	226.34
858.48	226.31
858.79	226.26
859.11	226.26
859.42	226.25
859.73	226.22
860.04	226.19
860.35	226.13
860.66	226.08
860.98	226.07
861.29	226.09
861.60	226.08
861.91	226.12
862.22	226.09
862.53	226.06
862.84	225.84
863.16	225.87
863.47	225.84
863.78	225.82
864.09	225.83
864.40	225.84
864.71	225.83
865.02	225.86
865.33	225.84
865.64	225.80
865.95	225.80
866.27	225.92
866.58	225.90
866.89	225.93
867.20	225.92
867.51	225.90
867.82	225.88
868.13	225.93
868.44	225.89
868.75	225.92
869.06	225.93
869.37	225.95
869.68	225.90
869.99	225.93
870.30	225.95
870.61	225.96
870.92	225.93
871.23	225.92
871.54	225.93
871.85	225.98
872.16	226.00
872.47	225.98
872.78	225.88
873.09	225.90
873.40	225.87
873.71	225.89
874.02	225.90
874.33	225.88
874.64	225.84
874.95	225.87
875.26	225.82
875.56	225.81
875.87	225.80
876.18	225.79
876.49	225.97
876.80	225.95
877.11	225.91
877.42	225.92
877.73	225.93
878.04	225.90
878.35	225.89
878.66	225.89
878.96	225.89
879.27	225.88
879.58	225.87
879.89	225.86
880.20	225.91
880.51	225.90
880.82	225.91
881.12	225.91
881.43	225.88
881.74	225.86
882.05	225.85
882.36	225.86
882.67	225.88
882.97	225.67
883.28	225.66
883.59	225.66
883.90	225.67
884.21	225.69
884.51	225.68
884.82	225.66
885.13	225.66
885.44	225.66
885.74	225.66
886.05	225.65
886.36	225.65
886.67	225.58
886.98	225.67
887.28	225.69
887.59	225.69
887.90	225.70
888.20	225.69
888.51	225.73
888.82	225.70
889.13	225.72
889.43	225.88
889.74	225.87
890.05	225.86
890.35	225.84
890.66	225.81
890.97	225.80
891.28	225.78
891.58	225.78
891.89	225.78
892.20	225.75
892.50	225.74
892.81	225.73
893.12	225.74
893.42	225.64
893.73	225.64
894.04	225.64
894.34	225.65
894.65	225.65
894.95	225.63
895.26	225.64
895.57	225.71
895.87	225.53
896.18	225.56
896.48	225.58
896.79	225.57
897.10	225.60
897.40	225.61
897.71	225.63
898.01	225.61
898.32	225.63
898.63	225.63
898.93	225.64
899.24	225.64
899.54	225.63
899.85	225.63
900.15	225.62
900.46	225.61
900.76	225.63
901.07	225.63
901.38	225.62
901.68	225.64
901.99	225.55
902.29	225.56
902.60	225.54
902.90	225.52
903.21	225.52
903.51	225.50
903.82	225.54
904.12	225.54
904.43	225.55
904.73	225.54
905.03	225.56
905.34	225.73
905.64	225.72
905.95	225.71
906.25	225.71
906.56	225.70
906.86	225.70
907.17	225.68
907.47	225.69
907.77	225.68
908.08	225.63
908.38	225.64
908.69	225.66
908.99	225.69
909.30	225.70
909.60	225.70
909.90	225.69
910.21	225.64
910.51	225.61
910.81	225.60
911.12	225.61
911.42	225.61
911.73	225.42
912.03	225.43
912.33	225.47
912.64	225.46
912.94	225.44
913.24	225.41
913.55	225.40
913.85	225.38
914.15	225.42
914.46	225.45
914.76	225.43
915.06	225.42
915.37	225.39
915.67	225.37
915.97	225.38
916.27	225.35
916.58	225.37
916.88	225.36
917.18	225.35
917.49	225.47
917.79	225.47
918.09	225.50
918.39	225.54
918.70	225.52
919.00	225.53
919.30	225.62
919.60	225.62
919.91	225.60
920.21	225.61
920.51	225.57
920.81	225.56
921.12	225.58
921.42	225.58
921.72	225.58
922.02	225.60
922.32	225.62
922.63	225.63
922.93	225.73
923.23	225.74
923.53	225.72
923.83	225.60
924.13	225.61
924.44	225.61
924.74	225.63
925.04	225.67
925.34	225.67
925.64	225.59
925.94	225.59
926.24	225.69
926.55	225.67
926.85	225.70
927.15	225.69
927.45	225.69
927.75	225.69
928.05	225.69
928.35	225.67
928.65	225.70
928.95	225.71
929.26	225.62
929.56	225.66
929.86	225.69
930.16	225.67
930.46	225.66
930.76	225.66
931.06	225.58
931.36	225.53
931.66	225.56
931.96	225.58
932.26	225.59
932.56	225.51
932.86	225.52
933.16	225.52
933.46	225.51
933.76	225.49
934.06	225.52
934.36	225.58
934.66	225.58
934.96	225.55
935.26	225.56
935.56	225.58
935.86	225.53
936.16	225.50
936.46	225.50
936.76	225.49
937.06	225.46
937.36	225.48
937.66	225.49
937.96	225.47
938.26	225.44
938.56	225.42
938.86	225.43
939.16	225.47
939.46	225.49
939.76	225.50
940.06	225.50
940.35	225.47
940.65	225.37
940.95	225.38
941.25	225.34
941.55	225.32
941.85	225.30
942.15	225.34
942.45	225.39
942.75	225.39
943.04	225.40
943.34	225.44
943.64	225.42
943.94	225.39
944.24	225.40
944.54	225.41
944.84	225.41
945.13	225.38
945.43	225.34
945.73	225.33
946.03	225.32
946.33	225.30
946.62	225.28
946.92	225.29
947.22	225.30
947.52	225.32
947.82	225.34
948.11	225.32
948.41	225.29
948.71	225.24
949.01	225.25
949.31	225.24
949.60	225.22
949.90	225.25
950.20	225.24
950.50	225.23
950.79	225.22
951.09	225.25
951.39	225.25
951.69	225.24
951.98	225.27
952.28	225.28
952.58	225.28
952.87	225.29
953.17	225.31
953.47	225.29
953.76	225.29
954.06	225.25
954.36	225.24
954.66	225.24
954.95	225.28
955.25	225.29
955.55	225.31
955.84	225.28
956.14	225.30
956.44	225.32
956.73	225.29
957.03	225.30
957.32	225.30
957.62	225.29
957.92	225.33
958.21	225.30
958.51	225.51
958.81	225.53
959.10	225.55
959.40	225.59
959.69	225.61
959.99	225.63
960.29	225.64
960.58	225.63
960.88	225.70
961.17	225.67
961.47	225.69
961.76	225.67
962.06	225.70
962.36	225.68
962.65	225.68
962.95	225.69
963.24	225.68
963.54	225.68
963.83	225.70
964.13	225.68
964.42	225.67
964.72	225.51
965.01	225.51
965.31	225.49
965.60	225.44
965.90	225.55
966.19	225.51
966.49	225.52
966.78	225.51
967.08	225.49
967.37	225.49
967.67	225.45
967.96	225.49
968.26	225.47
968.55	225.49
968.85	225.48
969.14	225.48
969.43	225.48
969.73	225.46
970.02	225.45
970.32	225.43
970.61	225.41
970.91	225.36
971.20	225.33
971.49	225.32
971.79	225.34
972.08	225.20
972.38	225.23
972.67	225.22
972.96	225.25
973.26	225.21
973.55	225.27
973.85	225.26
974.14	225.24
974.43	225.25
974.73	225.22
975.02	225.21
975.31	225.21
975.61	225.21
975.90	225.19
976.19	225.18
976.49	225.19
976.78	225.21
977.07	225.21
977.37	225.22
977.66	225.24
977.95	225.22
978.24	225.23
978.54	225.27
978.83	225.25
979.12	225.24
979.42	225.24
979.71	225.20
980.00	225.20
980.29	225.21
980.59	225.18
980.88	225.22
981.17	225.22
981.46	225.22
981.76	225.22
982.05	225.28
982.34	225.30
982.63	225.30
982.93	225.30
983.22	225.34
983.51	225.35
983.80	225.37
984.09	225.39
984.39	225.38
984.68	225.35
984.97	225.36
985.26	225.35
985.55	225.36
985.85	225.33
986.14	225.36
986.43	225.38
986.72	225.38
987.01	225.32
987.30	225.32
987.59	225.31
987.89	225.32
988.18	225.26
988.47	225.25
988.76	225.24
989.05	225.22
989.34	225.20
989.63	225.24
989.92	225.21
990.22	225.18
990.51	225.18
990.80	225.17
991.09	225.18
991.38	225.21
991.67	225.18
991.96	225.17
992.25	225.17
992.54	225.14
992.83	225.14
993.12	225.13
993.41	225.16
993.70	225.24
993.99	225.27
994.28	225.29
994.58	225.32
994.87	225.31
995.16	225.30
995.45	225.29
995.74	225.22
996.03	225.25
996.32	225.28
996.61	225.32
996.90	225.32
997.19	225.31
997.48	225.31
997.77	225.29
998.06	225.30
998.34	225.29
998.63	225.29
998.92	225.30
999.21	225.33
999.50	225.33
999.79	225.26
1000.08	225.25
1000.37	225.25
1000.66	225.22
1000.95	225.27
1001.24	225.28
1001.53	225.30
1001.82	225.30
1002.11	225.25
1002.40	225.27
1002.68	225.30
1002.97	225.43
1003.26	225.41
1003.55	225.39
1003.84	225.40
1004.13	225.46
1004.42	225.45
1004.71	225.45
1004.99	225.44
1005.28	225.48
1005.57	225.46
1005.86	225.44
1006.15	225.43
1006.44	225.39
1006.72	225.42
1007.01	225.39
1007.30	225.39
1007.59	225.37
1007.88	225.37
1008.17	225.38
1008.45	225.34
1008.74	225.26
1009.03	225.17
1009.32	225.17
1009.60	225.17
1009.89	225.15
1010.18	225.07
1010.47	225.07
1010.76	225.06
1011.04	225.06
1011.33	225.04
1011.62	225.06
1011.91	225.08
1012.19	225.08
1012.48	225.09
1012.77	225.09
1013.05	225.15
1013.34	225.15
1013.63	225.14
1013.92	225.15
1014.20	225.14
1014.49	225.16
1014.78	225.18
1015.06	225.12
1015.35	225.12
1015.64	225.15
1015.92	225.18
1016.21	225.19
1016.50	225.19
1016.78	225.22
1017.07	225.24
1017.36	225.21
1017.64	225.19
1017.93	225.20
1018.22	225.18
1018.50	225.18
1018.79	225.17
1019.08	225.11
1019.36	225.12
1019.65	225.11
1019.93	225.15
1020.22	225.18
1020.51	225.27
1020.79	225.26
1021.08	224.89
1021.36	224.87
1021.65	225.19
1021.94	225.14
1022.22	225.34
1022.51	224.82
1022.79	226.00
1023.08	225.42
1023.36	227.34
1023.65	224.81
>>>>>End Processed Spectral Data<<<<<
